Data run started at:  Tuesday, October 10, 2017	4:39:42 PM
magnet(A)	lockin1(V)	lockin2(V)	time (sec)
NaN	NaN	NaN	7.315000
0.143621	0.833776	0.007289	7.736000
0.143643	0.834249	0.007219	8.236000
0.143774	0.834045	0.007420	8.736000
0.143856	0.833583	0.007589	9.236000
0.143738	0.833247	0.007610	9.736000
0.143802	0.832822	0.007409	10.236000
0.143918	0.832672	0.007314	10.736000
0.143780	0.833369	0.007460	11.237000
0.143793	0.833904	0.007336	11.736000
0.143732	0.833822	0.007275	12.236000
0.143759	0.833545	0.007261	12.736000
0.143820	0.832851	0.007198	13.236000
0.145324	0.832826	0.007240	13.736000
0.150926	0.833033	0.007482	14.236000
0.169572	0.833790	0.007570	14.736000
0.194518	0.834495	0.007243	15.236000
0.219587	0.833869	0.007273	15.737000
0.241921	0.832342	0.007527	16.236000
0.261936	0.830738	0.007993	16.736000
0.281638	0.829242	0.008369	17.236000
0.297336	0.828312	0.008636	17.736000
0.315952	0.827288	0.008987	18.236000
0.341135	0.826649	0.009348	18.736000
0.357848	0.825934	0.009644	19.236000
0.375491	0.824910	0.009677	19.736000
0.395369	0.823364	0.009891	20.236000
0.419169	0.821085	0.010532	20.736000
0.440981	0.818495	0.011186	21.236000
0.465049	0.816038	0.011625	21.736000
0.481357	0.813872	0.011930	22.236000
0.501132	0.812057	0.012504	22.736000
0.521841	0.810598	0.012955	23.237000
0.541066	0.809326	0.013546	23.736000
0.562494	0.807887	0.014141	24.236000
0.589855	0.805696	0.014444	24.736000
0.613080	0.803009	0.014402	25.236000
0.635799	0.799847	0.014860	25.736000
0.649658	0.796910	0.015731	26.236000
0.678210	0.795061	0.016075	26.736000
0.702246	0.793128	0.016539	27.236000
0.723093	0.791487	0.016813	27.736000
0.739774	0.790043	0.017110	28.236000
0.763297	0.788022	0.017704	28.736000
0.782244	0.785544	0.018471	29.236000
0.794441	0.783094	0.019270	29.736000
0.817581	0.780736	0.019787	30.236000
0.843391	0.778280	0.019886	30.736000
0.858740	0.775992	0.020501	31.236000
0.875150	0.774493	0.021145	31.736000
0.906689	0.772679	0.021362	32.236000
0.925320	0.771100	0.022128	32.736000
0.939337	0.769274	0.022586	33.236000
0.956908	0.766963	0.022601	33.736000
0.981517	0.764424	0.023252	34.236000
1.000144	0.761638	0.023435	34.736000
1.019440	0.759440	0.023744	35.236000
1.041296	0.757652	0.024352	35.736000
1.063585	0.756308	0.024748	36.236000
1.092398	0.755191	0.025348	36.736000
1.108658	0.753461	0.026028	37.236000
1.125745	0.750819	0.026615	37.736000
1.148972	0.748379	0.027105	38.236000
1.167181	0.745266	0.027464	38.736000
1.186749	0.743313	0.027776	39.236000
1.208380	0.741771	0.028036	39.736000
1.229922	0.740125	0.028749	40.236000
1.254703	0.738324	0.029245	40.736000
1.273260	0.736542	0.029767	41.236000
1.291614	0.734173	0.030556	41.736000
1.314127	0.731698	0.030967	42.236000
1.333929	0.729531	0.031667	42.736000
1.355029	0.728075	0.032607	43.236000
1.373725	0.726808	0.032972	43.736000
1.392382	0.724898	0.033127	44.236000
1.415107	0.722248	0.033655	44.736000
1.435359	0.719381	0.034003	45.236000
1.456833	0.717326	0.034206	45.737000
1.475141	0.716188	0.034634	46.236000
1.493405	0.715627	0.035212	46.736000
1.515723	0.714664	0.035780	47.236000
1.536636	0.712950	0.036156	47.737000
1.557464	0.709946	0.036353	48.236000
1.578690	0.706648	0.036864	48.736000
1.600164	0.704305	0.037514	49.236000
1.620920	0.703988	0.037789	49.736000
1.640983	0.703831	0.038572	50.236000
1.660556	0.702115	0.039061	50.736000
1.680794	0.698965	0.039678	51.237000
1.701652	0.696241	0.040390	51.736000
1.722485	0.694588	0.040720	52.236000
1.742612	0.693329	0.041173	52.736000
1.765009	0.692463	0.041434	53.237000
1.788318	0.691951	0.041838	53.736000
1.809384	0.691291	0.042420	54.236000
1.829411	0.689189	0.042928	54.736000
1.850755	0.685948	0.043334	55.236000
1.873240	0.683110	0.043870	55.736000
1.892545	0.681142	0.044387	56.236000
1.912356	0.679894	0.044997	56.737000
1.933133	0.678775	0.045406	57.236000
1.954749	0.677786	0.046047	57.736000
1.978415	0.676007	0.047174	58.236000
1.998505	0.674263	0.047800	58.736000
2.018807	0.672389	0.048045	59.236000
2.040235	0.671218	0.048211	59.737000
2.060917	0.669897	0.048345	60.236000
2.082521	0.668761	0.048552	60.736000
2.103012	0.667554	0.049264	61.236000
2.125436	0.665948	0.050048	61.736000
2.146077	0.664235	0.050931	62.237000
2.167109	0.662423	0.051735	62.736000
2.187930	0.660884	0.052342	63.236000
2.208651	0.659905	0.052617	63.736000
2.230719	0.659384	0.052884	64.237000
2.251573	0.658115	0.053244	64.736000
2.274907	0.656170	0.053921	65.236000
2.297358	0.654039	0.054307	65.736000
2.318646	0.652714	0.054436	66.236000
2.340125	0.651834	0.055012	66.736000
2.363040	0.651529	0.055671	67.236000
2.386029	0.650412	0.056360	67.736000
2.410400	0.649100	0.056796	68.236000
2.431428	0.647221	0.057368	68.736000
2.453577	0.645590	0.058055	69.236000
2.475796	0.644423	0.058388	69.736000
2.499874	0.643193	0.058886	70.236000
2.523376	0.642715	0.059364	70.736000
2.545737	0.641847	0.059944	71.236000
2.567239	0.640572	0.060733	71.736000
2.588874	0.639278	0.061056	72.237000
2.609874	0.637938	0.061453	72.736000
2.632502	0.636572	0.062006	73.236000
2.654788	0.635546	0.062691	73.736000
2.676504	0.635131	0.063198	74.236000
2.697522	0.634457	0.063648	74.736000
2.718320	0.634060	0.064013	75.236000
2.739116	0.633119	0.064541	75.736000
2.762207	0.632057	0.065275	76.236000
2.785736	0.631174	0.065802	76.736000
2.807492	0.630071	0.065973	77.236000
2.828467	0.628280	0.066364	77.736000
2.849664	0.626961	0.066916	78.236000
2.870933	0.625271	0.067122	78.736000
2.891389	0.623645	0.067147	79.236000
2.912002	0.622748	0.067538	79.736000
2.936112	0.622343	0.068443	80.236000
2.957470	0.622418	0.069176	80.736000
2.977967	0.622438	0.070034	81.237000
3.000046	0.621803	0.070636	81.736000
3.021536	0.620312	0.071300	82.237000
3.040994	0.619112	0.071849	82.736000
3.064444	0.617608	0.072281	83.236000
3.086913	0.616406	0.072624	83.736000
3.109016	0.615647	0.073094	84.236000
3.131418	0.615672	0.073713	84.736000
3.153249	0.615739	0.074070	85.236000
3.175410	0.615197	0.074501	85.736000
3.196070	0.613991	0.074867	86.236000
3.217859	0.612940	0.075622	86.736000
3.238898	0.611326	0.076383	87.236000
3.261127	0.610341	0.076663	87.736000
3.281697	0.610125	0.076885	88.236000
3.301886	0.610222	0.077183	88.736000
3.323147	0.610087	0.078000	89.236000
3.343598	0.609572	0.078404	89.737000
3.365979	0.608381	0.078850	90.236000
3.387823	0.606948	0.079463	90.736000
3.409438	0.605833	0.080040	91.237000
3.429888	0.605461	0.080197	91.736000
3.450743	0.605534	0.080607	92.237000
3.472821	0.605948	0.081314	92.736000
3.494022	0.605738	0.082169	93.236000
3.517595	0.604366	0.082646	93.736000
3.539192	0.602295	0.083104	94.236000
3.559889	0.600848	0.083902	94.736000
3.580925	0.601011	0.084502	95.236000
3.601236	0.601260	0.085432	95.736000
3.622269	0.600909	0.086203	96.236000
3.643735	0.600735	0.086245	96.736000
3.666077	0.600156	0.086354	97.236000
3.689648	0.599117	0.086752	97.736000
3.711429	0.598396	0.087382	98.236000
3.733013	0.597849	0.087639	98.736000
3.754374	0.597057	0.087864	99.236000
3.775808	0.596171	0.088264	99.736000
3.800989	0.595929	0.088741	100.236000
3.822971	0.595796	0.089271	100.737000
3.845224	0.595403	0.089653	101.236000
3.867172	0.595053	0.090057	101.736000
3.890808	0.594826	0.090706	102.236000
3.916126	0.594548	0.090828	102.736000
3.938585	0.594025	0.091458	103.236000
3.960140	0.593613	0.092540	103.736000
3.982041	0.592940	0.093346	104.236000
4.005649	0.592058	0.093988	104.736000
4.029146	0.590657	0.094377	105.236000
4.051001	0.590122	0.094988	105.736000
4.071765	0.590425	0.095325	106.237000
4.092985	0.590844	0.095616	106.736000
4.112219	0.590970	0.095956	107.236000
4.133646	0.591209	0.096242	107.736000
4.156848	0.591044	0.096439	108.236000
4.177945	0.590786	0.096661	108.736000
4.199289	0.590764	0.097503	109.236000
4.221115	0.590372	0.098372	109.736000
4.242371	0.589122	0.099231	110.236000
4.263491	0.587900	0.100022	110.736000
4.284567	0.586896	0.100536	111.236000
4.307990	0.586090	0.101079	111.736000
4.329379	0.585301	0.101921	112.236000
4.350385	0.584758	0.102355	112.736000
4.370609	0.585050	0.102315	113.236000
4.391605	0.585072	0.102371	113.736000
4.412939	0.585829	0.102791	114.236000
4.433917	0.586720	0.103501	114.736000
4.457630	0.587589	0.104067	115.236000
4.479962	0.588513	0.104714	115.736000
4.500838	0.589146	0.105387	116.237000
4.522656	0.589300	0.105940	116.737000
4.543046	0.588546	0.106278	117.236000
4.564703	0.587998	0.106816	117.736000
4.586832	0.587426	0.107457	118.236000
4.609782	0.586980	0.108119	118.736000
4.630497	0.586503	0.108768	119.236000
4.651769	0.585585	0.109221	119.736000
4.673287	0.585085	0.109495	120.236000
4.695017	0.584720	0.109900	120.736000
4.717216	0.584863	0.110196	121.236000
4.738399	0.584819	0.110837	121.736000
4.761798	0.584898	0.111288	122.236000
4.783320	0.585457	0.111707	122.736000
4.804488	0.585309	0.112137	123.236000
4.825602	0.585268	0.112738	123.736000
4.846524	0.585605	0.113210	124.236000
4.869234	0.585817	0.113607	124.736000
4.892782	0.585706	0.114199	125.236000
4.914137	0.585456	0.114988	125.736000
4.935865	0.585736	0.114946	126.236000
4.957959	0.586091	0.115284	126.736000
4.979861	0.586395	0.116058	127.236000
5.002521	0.586833	0.116594	127.736000
5.025240	0.586825	0.117209	128.236000
5.046312	0.586591	0.117834	128.736000
5.068230	0.586777	0.118460	129.236000
5.089719	0.585865	0.118989	129.736000
5.111963	0.584896	0.119572	130.236000
5.134281	0.584570	0.120177	130.736000
5.157244	0.584172	0.120779	131.236000
5.180405	0.583731	0.121318	131.736000
5.201453	0.582668	0.121809	132.236000
5.222260	0.581962	0.122237	132.736000
5.243795	0.581962	0.122754	133.236000
5.263470	0.582163	0.122944	133.736000
5.285051	0.582635	0.123194	134.237000
5.307859	0.583708	0.123805	134.736000
5.328884	0.585151	0.124272	135.236000
5.351377	0.586720	0.124547	135.736000
5.369939	0.588343	0.125118	136.236000
5.392493	0.590458	0.126067	136.737000
5.412999	0.593449	0.126735	137.236000
5.434274	0.595714	0.127366	137.736000
5.459250	0.597247	0.127571	138.236000
5.484335	0.598632	0.128146	138.736000
5.508023	0.599184	0.128732	139.236000
5.528867	0.599428	0.129284	139.736000
5.550698	0.598795	0.129557	140.236000
5.573838	0.597292	0.130140	140.736000
5.597159	0.596223	0.130733	141.236000
5.618262	0.594927	0.131199	141.736000
5.640479	0.593708	0.131612	142.236000
5.660620	0.592983	0.131858	142.736000
5.682294	0.592406	0.132437	143.236000
5.703900	0.592127	0.132685	143.736000
5.727587	0.591789	0.133283	144.237000
5.750480	0.590814	0.134080	144.736000
5.773311	0.589291	0.134865	145.236000
5.794273	0.588056	0.135652	145.736000
5.818682	0.587120	0.135890	146.236000
5.840224	0.585939	0.136396	146.736000
5.862128	0.585092	0.137033	147.236000
5.882740	0.585541	0.137521	147.736000
5.902029	0.586956	0.137990	148.236000
5.924380	0.589289	0.138641	148.736000
5.946764	0.592156	0.139388	149.236000
5.968292	0.595325	0.139612	149.737000
5.989605	0.598837	0.139800	150.236000
6.012438	0.602659	0.140031	150.736000
6.034713	0.606043	0.140494	151.236000
6.055230	0.609128	0.141214	151.736000
6.079391	0.611794	0.142087	152.236000
6.102263	0.614136	0.142612	152.736000
6.120037	0.616547	0.142994	153.236000
6.140540	0.618574	0.143333	153.736000
6.167264	0.620010	0.143806	154.236000
6.187118	0.621218	0.144399	154.736000
6.206767	0.622578	0.144928	155.236000
6.229084	0.623580	0.145537	155.736000
6.253167	0.624514	0.146199	156.236000
6.275072	0.625076	0.146612	156.736000
6.298517	0.625398	0.147118	157.236000
6.319400	0.625491	0.147643	157.736000
6.339326	0.624997	0.148316	158.236000
6.360833	0.624380	0.148752	158.736000
6.380957	0.622919	0.149000	159.236000
6.402963	0.620557	0.149267	159.736000
6.428311	0.618006	0.149577	160.236000
6.449436	0.615505	0.150121	160.736000
6.469522	0.612593	0.150426	161.236000
6.491001	0.609872	0.151216	161.737000
6.511876	0.606876	0.152018	162.236000
6.540360	0.604160	0.152467	162.736000
6.560807	0.601752	0.152718	163.236000
6.580900	0.600035	0.152859	163.736000
6.601193	0.597981	0.153690	164.236000
6.621886	0.596447	0.154245	164.736000
6.644731	0.595969	0.154754	165.236000
6.666797	0.596703	0.155140	165.736000
6.687690	0.597677	0.155608	166.236000
6.710201	0.599223	0.156174	166.736000
6.730531	0.601314	0.156666	167.236000
6.752836	0.604250	0.157117	167.736000
6.774817	0.607949	0.157789	168.236000
6.795890	0.612090	0.157946	168.737000
6.817563	0.616836	0.158437	169.236000
6.839261	0.622594	0.158768	169.736000
6.862935	0.628303	0.159028	170.236000
6.884485	0.633769	0.159592	170.736000
6.905819	0.639481	0.160145	171.236000
6.926935	0.645754	0.160742	171.736000
6.950988	0.651726	0.161393	172.236000
6.973361	0.657439	0.162010	172.736000
6.995614	0.663011	0.162828	173.236000
7.017922	0.667572	0.163555	173.736000
7.039402	0.671738	0.163849	174.236000
7.061251	0.675858	0.164174	174.736000
7.084245	0.679340	0.164233	175.237000
7.105987	0.682729	0.164868	175.736000
7.128285	0.685522	0.165591	176.236000
7.150608	0.687698	0.166093	176.736000
7.171997	0.689004	0.166635	177.236000
7.194121	0.689407	0.167170	177.736000
7.217826	0.689863	0.167706	178.236000
7.241160	0.689461	0.168088	178.736000
7.262594	0.688596	0.168481	179.236000
7.283262	0.687096	0.169041	179.736000
7.304135	0.684771	0.169761	180.236000
7.325787	0.681609	0.170195	180.736000
7.349877	0.678308	0.170874	181.236000
7.371633	0.674538	0.171371	181.737000
7.393331	0.670383	0.171951	182.236000
7.415259	0.665683	0.172712	182.736000
7.436890	0.661179	0.173153	183.236000
7.459874	0.656337	0.173647	183.736000
7.483273	0.651734	0.173920	184.236000
7.505927	0.647571	0.174257	184.736000
7.527855	0.643189	0.174730	185.236000
7.550474	0.638597	0.175399	185.736000
7.572176	0.633814	0.175725	186.236000
7.596036	0.629958	0.176491	186.736000
7.619514	0.625846	0.177172	187.236000
7.641742	0.621673	0.177671	187.736000
7.663193	0.619139	0.178305	188.236000
7.684396	0.617153	0.179066	188.736000
7.707272	0.615646	0.179514	189.236000
7.730812	0.614999	0.179897	189.736000
7.752508	0.615200	0.180255	190.236000
7.773873	0.616301	0.180556	190.737000
7.796270	0.618676	0.180796	191.236000
7.819207	0.621742	0.181265	191.736000
7.841896	0.625789	0.182272	192.236000
7.864910	0.630588	0.183158	192.736000
7.886669	0.636616	0.183979	193.236000
7.908846	0.643331	0.184565	193.736000
7.931175	0.651327	0.184563	194.237000
7.953132	0.659814	0.184671	194.736000
7.975787	0.668558	0.184902	195.236000
7.999055	0.677979	0.185208	195.736000
8.020084	0.687594	0.185726	196.236000
8.041635	0.697030	0.186282	196.736000
8.063070	0.707390	0.186970	197.236000
8.084833	0.717823	0.187350	197.736000
8.107725	0.727727	0.187822	198.236000
8.129334	0.736918	0.188175	198.736000
8.150208	0.745883	0.188525	199.236000
8.171243	0.754700	0.189186	199.736000
8.191909	0.763096	0.189472	200.236000
8.214491	0.771180	0.189870	200.736000
8.236468	0.779236	0.190089	201.236000
8.260230	0.786392	0.190439	201.736000
8.281933	0.793242	0.191091	202.236000
8.302696	0.799923	0.191619	202.736000
8.323961	0.805338	0.192166	203.236000
8.345082	0.810306	0.192571	203.736000
8.368285	0.813980	0.193252	204.237000
8.391599	0.816829	0.193659	204.736000
8.414302	0.819292	0.194007	205.236000
8.436419	0.821003	0.194415	205.736000
8.458415	0.822069	0.195057	206.237000
8.481095	0.822799	0.195824	206.736000
8.506267	0.822381	0.196795	207.236000
8.528734	0.821316	0.197840	207.736000
8.551172	0.819735	0.198120	208.236000
8.572848	0.817410	0.198521	208.736000
8.597208	0.814419	0.199398	209.236000
8.621009	0.811326	0.199891	209.736000
8.642792	0.808065	0.200364	210.236000
8.663767	0.804030	0.200711	210.736000
8.685544	0.799220	0.201318	211.236000
8.709214	0.793952	0.202065	211.736000
8.734409	0.788368	0.202772	212.236000
8.756978	0.782455	0.203560	212.736000
8.780005	0.776592	0.204094	213.236000
8.803275	0.770121	0.204863	213.736000
8.827334	0.763007	0.205464	214.236000
8.849758	0.756388	0.205740	214.736000
8.871624	0.749565	0.206291	215.236000
8.894449	0.742268	0.206619	215.736000
8.916945	0.734793	0.206869	216.237000
8.940177	0.727014	0.207507	216.736000
8.961558	0.718918	0.208260	217.236000
8.982906	0.710934	0.208889	217.736000
9.004722	0.702750	0.209598	218.236000
9.025880	0.694913	0.210077	218.737000
9.048152	0.686763	0.210545	219.236000
9.071923	0.679328	0.211099	219.736000
9.094513	0.672988	0.211848	220.236000
9.115741	0.667103	0.212260	220.736000
9.137850	0.660882	0.212682	221.236000
9.159630	0.655914	0.213183	221.736000
9.181814	0.651282	0.213765	222.236000
9.204852	0.646895	0.214617	222.736000
9.227178	0.643323	0.214833	223.236000
9.248670	0.642163	0.214893	223.737000
9.269753	0.642390	0.215514	224.236000
9.291300	0.642750	0.216218	224.736000
9.313910	0.644463	0.216666	225.237000
9.337478	0.647255	0.217001	225.736000
9.361189	0.651709	0.217403	226.236000
9.382982	0.658464	0.218014	226.736000
9.404237	0.666417	0.218566	227.236000
9.426391	0.674566	0.218962	227.736000
9.450181	0.683030	0.219192	228.236000
9.473870	0.692564	0.219490	228.737000
9.496194	0.704232	0.219855	229.236000
9.517369	0.717330	0.220309	229.737000
9.539292	0.730955	0.220611	230.236000
9.558696	0.744869	0.220722	230.736000
9.581092	0.758872	0.221023	231.236000
9.603839	0.773732	0.221491	231.736000
9.626668	0.789629	0.221959	232.236000
9.648469	0.805216	0.222309	232.736000
9.670352	0.821404	0.222938	233.236000
9.691000	0.837340	0.223757	233.736000
9.713791	0.852409	0.224349	234.236000
9.736520	0.866880	0.224561	234.736000
9.759235	0.881994	0.224991	235.236000
9.780829	0.897595	0.225247	235.736000
9.802746	0.913636	0.225470	236.236000
9.824656	0.929616	0.225929	236.736000
9.847687	0.944782	0.226488	237.236000
9.871856	0.958614	0.227090	237.736000
9.893796	0.971199	0.227743	238.236000
9.915958	0.983452	0.228537	238.736000
9.938565	0.995673	0.228847	239.236000
9.963173	1.007897	0.229525	239.736000
9.985826	1.020293	0.230048	240.236000
10.006951	1.031077	0.230640	240.736000
10.026746	1.041263	0.231479	241.236000
10.050124	1.049863	0.231795	241.736000
10.070721	1.058120	0.232422	242.236000
10.092861	1.066520	0.232977	242.736000
10.116473	1.074149	0.233481	243.236000
10.138297	1.081079	0.233816	243.736000
10.160992	1.087679	0.234448	244.237000
10.182110	1.093065	0.234950	244.736000
10.204317	1.097546	0.235594	245.236000
10.226315	1.101006	0.236380	245.736000
10.246708	1.104167	0.236586	246.236000
10.271032	1.107487	0.236892	246.736000
10.292408	1.110366	0.237210	247.236000
10.313509	1.111611	0.237874	247.736000
10.335254	1.111597	0.238623	248.237000
10.358376	1.111338	0.239222	248.736000
10.383032	1.111491	0.239699	249.236000
10.404737	1.111182	0.240300	249.736000
10.426312	1.110061	0.240907	250.236000
10.447155	1.107644	0.241519	250.737000
10.467471	1.104111	0.242014	251.236000
10.490556	1.100695	0.242205	251.736000
10.512493	1.097432	0.242766	252.236000
10.534762	1.093706	0.243490	252.736000
10.559094	1.089217	0.244397	253.236000
10.579883	1.083794	0.245062	253.736000
10.600836	1.078080	0.245526	254.236000
10.622699	1.071600	0.245726	254.736000
10.645329	1.064974	0.246185	255.236000
10.667267	1.058903	0.246826	255.736000
10.687679	1.052828	0.247210	256.237000
10.709013	1.045632	0.247793	256.736000
10.730956	1.037635	0.248417	257.236000
10.752659	1.028530	0.249181	257.736000
10.774135	1.019860	0.250029	258.237000
10.798307	1.011878	0.250686	258.736000
10.819962	1.003962	0.251068	259.236000
10.843932	0.995617	0.251376	259.737000
10.864181	0.986060	0.251880	260.236000
10.882428	0.975411	0.252687	260.736000
10.901924	0.965290	0.253445	261.236000
10.926095	0.956175	0.254029	261.736000
10.948015	0.946494	0.254668	262.236000
10.972253	0.935425	0.255270	262.737000
10.996622	0.924386	0.255790	263.236000
11.017624	0.913456	0.256265	263.736000
11.038022	0.902475	0.256975	264.236000
11.059120	0.891407	0.257544	264.737000
11.080369	0.879868	0.258072	265.237000
11.104924	0.867638	0.258629	265.736000
11.137443	0.854835	0.259350	266.236000
11.151960	0.842712	0.259921	266.736000
11.168574	0.831106	0.260500	267.236000
11.186457	0.819070	0.261248	267.736000
11.208174	0.806681	0.261952	268.236000
11.232629	0.793886	0.262118	268.736000
11.254373	0.780941	0.262490	269.236000
11.278063	0.768868	0.263051	269.736000
11.296442	0.757025	0.263831	270.236000
11.318504	0.746340	0.264276	270.736000
11.339794	0.735364	0.264812	271.236000
11.360832	0.724266	0.265217	271.736000
11.382247	0.713307	0.265449	272.236000
11.404035	0.702969	0.265583	272.736000
11.427324	0.693061	0.265893	273.236000
11.447318	0.683946	0.266179	273.736000
11.469055	0.675827	0.266580	274.236000
11.489368	0.669446	0.266962	274.736000
11.510101	0.664744	0.267792	275.236000
11.532896	0.661104	0.268139	275.736000
11.554717	0.658607	0.268317	276.236000
11.577667	0.656436	0.268599	276.736000
11.598814	0.655705	0.268988	277.236000
11.618170	0.656942	0.269360	277.736000
11.640428	0.660966	0.269952	278.237000
11.662118	0.667264	0.270196	278.736000
11.683707	0.675242	0.270251	279.236000
11.705309	0.684638	0.270615	279.737000
11.727532	0.695428	0.270912	280.236000
11.748813	0.707569	0.271256	280.736000
11.771012	0.720813	0.271523	281.236000
11.792721	0.735690	0.271596	281.736000
11.814705	0.751906	0.272097	282.236000
11.837030	0.770028	0.272463	282.736000
11.859348	0.789638	0.272550	283.236000
11.881134	0.810163	0.272659	283.736000
11.905386	0.831198	0.272989	284.236000
11.925586	0.852619	0.273497	284.736000
11.948935	0.873981	0.273940	285.236000
11.969722	0.896345	0.274404	285.736000
11.991021	0.920074	0.275035	286.236000
12.014535	0.944394	0.275722	286.736000
12.035459	0.968277	0.276104	287.236000
12.057122	0.991784	0.276703	287.736000
12.077737	1.015733	0.277264	288.236000
12.100314	1.039175	0.277586	288.736000
12.122449	1.062491	0.277592	289.236000
12.146509	1.085024	0.277984	289.736000
12.168811	1.107738	0.278331	290.236000
12.189471	1.130373	0.278643	290.736000
12.212570	1.153021	0.279166	291.236000
12.234619	1.176271	0.279817	291.736000
12.256892	1.199140	0.280256	292.236000
12.280377	1.221906	0.280654	292.736000
12.301492	1.244606	0.281503	293.236000
12.322516	1.265721	0.282237	293.736000
12.343253	1.285922	0.282560	294.236000
12.365234	1.305289	0.283108	294.736000
12.387966	1.323935	0.283649	295.237000
12.411661	1.342581	0.284147	295.736000
12.433867	1.361111	0.284607	296.236000
12.455155	1.379769	0.285087	296.736000
12.477345	1.397759	0.285775	297.236000
12.499844	1.415624	0.286460	297.736000
12.524969	1.432712	0.287180	298.236000
12.548795	1.449114	0.287611	298.736000
12.570943	1.464696	0.288003	299.237000
12.593056	1.480462	0.288497	299.736000
12.615125	1.495270	0.289023	300.236000
12.636802	1.509903	0.289206	300.736000
12.659590	1.524394	0.289339	301.236000
12.682517	1.538033	0.289830	301.736000
12.706059	1.551296	0.290423	302.236000
12.728195	1.564949	0.290520	302.736000
12.752008	1.578315	0.291193	303.236000
12.774808	1.590280	0.292092	303.736000
12.797394	1.601746	0.293040	304.236000
12.818515	1.612781	0.293269	304.736000
12.840074	1.623508	0.293670	305.236000
12.862708	1.633387	0.294197	305.736000
12.887241	1.642626	0.294690	306.236000
12.910429	1.651529	0.295312	306.736000
12.932097	1.660745	0.295758	307.236000
12.953789	1.669702	0.296073	307.736000
12.974582	1.677701	0.296767	308.236000
12.996359	1.685515	0.297253	308.736000
13.019950	1.692319	0.297912	309.237000
13.041921	1.698181	0.298077	309.736000
13.063914	1.703482	0.298447	310.236000
13.085678	1.709644	0.298998	310.736000
13.107233	1.716345	0.299625	311.236000
13.129174	1.721815	0.300480	311.736000
13.152713	1.725554	0.301159	312.236000
13.175830	1.728792	0.301553	312.736000
13.198636	1.732706	0.301977	313.236000
13.220129	1.736358	0.302670	313.736000
13.241995	1.740092	0.303319	314.236000
13.266061	1.743245	0.303875	314.736000
13.289568	1.744952	0.304546	315.236000
13.312149	1.745508	0.304965	315.736000
13.334618	1.746240	0.305281	316.236000
13.357804	1.747378	0.305713	316.736000
13.382504	1.748188	0.306172	317.236000
13.404808	1.748262	0.306696	317.736000
13.425986	1.747434	0.307274	318.236000
13.448114	1.746241	0.308012	318.736000
13.472299	1.744805	0.308650	319.236000
13.495997	1.743596	0.309393	319.736000
13.517421	1.741972	0.309829	320.236000
13.538875	1.739549	0.310249	320.736000
13.561608	1.736436	0.310858	321.236000
13.584001	1.733526	0.311502	321.737000
13.607858	1.730711	0.312192	322.236000
13.630841	1.726376	0.312921	322.737000
13.653295	1.721130	0.313670	323.236000
13.676202	1.715925	0.314320	323.736000
13.697983	1.711210	0.314517	324.236000
13.721948	1.705566	0.314717	324.736000
13.744115	1.698695	0.315175	325.236000
13.765912	1.691670	0.315962	325.736000
13.786824	1.684261	0.316881	326.236000
13.808743	1.676704	0.317399	326.736000
13.830283	1.668746	0.317668	327.236000
13.853047	1.660544	0.317934	327.736000
13.876901	1.652262	0.318341	328.236000
13.898538	1.643708	0.319014	328.736000
13.919958	1.634768	0.319813	329.236000
13.941954	1.625075	0.320809	329.736000
13.964304	1.614946	0.321720	330.236000
13.986337	1.605556	0.322607	330.736000
14.008651	1.595089	0.323434	331.236000
14.029028	1.583554	0.323964	331.736000
14.051246	1.572494	0.324580	332.236000
14.073470	1.561993	0.324792	332.737000
14.096005	1.550446	0.325053	333.236000
14.118054	1.538655	0.325621	333.736000
14.141766	1.527092	0.326347	334.236000
14.164612	1.516384	0.326722	334.736000
14.186596	1.504337	0.327216	335.236000
14.208484	1.491712	0.327974	335.736000
14.231831	1.479023	0.328640	336.236000
14.256420	1.466465	0.329350	336.736000
14.279297	1.454135	0.329975	337.236000
14.300748	1.441189	0.330576	337.736000
14.323810	1.428300	0.331166	338.236000
14.345444	1.416049	0.332367	338.736000
14.369693	1.403038	0.333245	339.236000
14.393327	1.389131	0.333887	339.736000
14.415906	1.375603	0.334371	340.236000
14.437930	1.361938	0.334983	340.736000
14.460616	1.348227	0.335636	341.236000
14.483093	1.333660	0.336358	341.736000
14.506073	1.319650	0.337085	342.236000
14.527481	1.306698	0.337633	342.736000
14.550821	1.292736	0.337999	343.236000
14.573938	1.277784	0.338691	343.736000
14.597416	1.262919	0.339421	344.236000
14.620478	1.248562	0.340007	344.736000
14.642508	1.233194	0.340543	345.236000
14.665068	1.216833	0.341226	345.736000
14.687937	1.200905	0.342015	346.236000
14.712143	1.184667	0.342555	346.737000
14.736281	1.167689	0.343112	347.236000
14.758875	1.150518	0.343958	347.736000
14.779031	1.133146	0.344621	348.236000
14.801169	1.114455	0.344982	348.736000
14.824380	1.095641	0.345727	349.236000
14.848739	1.077629	0.346454	349.736000
14.871201	1.059604	0.347492	350.236000
14.893849	1.039834	0.348270	350.736000
14.915325	1.019063	0.348860	351.236000
14.940424	0.998647	0.349744	351.736000
14.963733	0.977594	0.350462	352.236000
14.986716	0.955968	0.350718	352.736000
15.007642	0.933573	0.351162	353.236000
15.031290	0.911346	0.351846	353.736000
15.052638	0.889020	0.352449	354.236000
15.075443	0.865379	0.352866	354.736000
15.098833	0.841794	0.353081	355.236000
15.118792	0.819296	0.353415	355.736000
15.140278	0.797268	0.353946	356.236000
15.163572	0.774931	0.354266	356.736000
15.186572	0.752658	0.354467	357.236000
15.209531	0.730486	0.354753	357.736000
15.232928	0.709810	0.355148	358.236000
15.254901	0.690582	0.355634	358.736000
15.276468	0.672861	0.355822	359.236000
15.299458	0.656550	0.355971	359.736000
15.321736	0.640733	0.355669	360.236000
15.344107	0.626909	0.355841	360.736000
15.366290	0.616325	0.356350	361.236000
15.387124	0.608056	0.356780	361.736000
15.410253	0.602572	0.357022	362.236000
15.433212	0.599243	0.357235	362.736000
15.459778	0.598300	0.357035	363.236000
15.482999	0.600706	0.357148	363.736000
15.504204	0.606709	0.357606	364.236000
15.525588	0.615797	0.357849	364.736000
15.550188	0.627316	0.358121	365.236000
15.573187	0.641108	0.358316	365.736000
15.595542	0.658089	0.358194	366.236000
15.617671	0.677011	0.358172	366.736000
15.641263	0.698180	0.358694	367.236000
15.665460	0.722272	0.359255	367.736000
15.688654	0.748735	0.359371	368.237000
15.711012	0.777143	0.359660	368.736000
15.733438	0.806377	0.360108	369.236000
15.754222	0.837470	0.360323	369.736000
15.778667	0.869934	0.360398	370.236000
15.802558	0.903478	0.360387	370.736000
15.825526	0.938763	0.360878	371.236000
15.848338	0.974649	0.361124	371.736000
15.870679	1.010749	0.361348	372.236000
15.894281	1.047050	0.361983	372.736000
15.919418	1.083230	0.362579	373.236000
15.939508	1.120443	0.362917	373.736000
15.961912	1.157841	0.363135	374.236000
15.982928	1.194350	0.363448	374.736000
16.008226	1.230892	0.364152	375.236000
16.031079	1.266017	0.364669	375.737000
16.056954	1.300754	0.364950	376.236000
16.075840	1.335580	0.365345	376.736000
16.097237	1.370121	0.365704	377.237000
16.120724	1.404015	0.365729	377.736000
16.144684	1.437393	0.366284	378.236000
16.167923	1.470221	0.367207	378.736000
16.186914	1.502686	0.367448	379.236000
16.210889	1.534259	0.367725	379.736000
16.231922	1.565312	0.368289	380.236000
16.252245	1.595597	0.369244	380.736000
16.275898	1.624589	0.369706	381.237000
16.300897	1.652757	0.370048	381.736000
16.320633	1.681268	0.370259	382.236000
16.342200	1.710014	0.370672	382.736000
16.363409	1.738275	0.371260	383.236000
16.387262	1.765047	0.371599	383.736000
16.410392	1.791108	0.371986	384.236000
16.432195	1.817292	0.372534	384.736000
16.455509	1.842750	0.373194	385.236000
16.476925	1.868231	0.373406	385.736000
16.499163	1.893518	0.373781	386.236000
16.522984	1.917970	0.374538	386.736000
16.548413	1.941497	0.374993	387.237000
16.567529	1.964256	0.375226	387.736000
16.590047	1.986712	0.375815	388.237000
16.610767	2.009392	0.376212	388.736000
16.635232	2.031553	0.376462	389.236000
16.656402	2.053490	0.376859	389.736000
16.678930	2.075546	0.377289	390.237000
16.703360	2.096367	0.377712	390.736000
16.721621	2.116664	0.378337	391.236000
16.742904	2.136233	0.378906	391.736000
16.763641	2.155251	0.379621	392.236000
16.785181	2.174199	0.380165	392.736000
16.807120	2.192610	0.380610	393.236000
16.830048	2.210808	0.380782	393.736000
16.851455	2.228324	0.381314	394.236000
16.873782	2.246014	0.382117	394.736000
16.895729	2.264111	0.382686	395.236000
16.917482	2.281396	0.383444	395.736000
16.938436	2.297239	0.384096	396.236000
16.960790	2.313034	0.384349	396.736000
16.983200	2.328732	0.384500	397.236000
17.004662	2.344049	0.384668	397.737000
17.026757	2.359138	0.385304	398.236000
17.047920	2.374201	0.386218	398.736000
17.070149	2.390058	0.386935	399.236000
17.093290	2.405593	0.387312	399.736000
17.116700	2.420235	0.387741	400.236000
17.139363	2.434435	0.388411	400.736000
17.162224	2.447966	0.388691	401.236000
17.184886	2.461026	0.388868	401.736000
17.209224	2.474032	0.389107	402.237000
17.234061	2.487080	0.389672	402.737000
17.255473	2.500323	0.390326	403.236000
17.276108	2.513506	0.390874	403.736000
17.299578	2.527436	0.391541	404.236000
17.323869	2.540683	0.392210	404.736000
17.346402	2.552707	0.392495	405.236000
17.368447	2.564394	0.393098	405.736000
17.390723	2.576234	0.393863	406.236000
17.413918	2.588036	0.394555	406.736000
17.436133	2.599234	0.395204	407.236000
17.460818	2.610514	0.395393	407.736000
17.483670	2.621836	0.395785	408.236000
17.505972	2.633269	0.395701	408.736000
17.527043	2.644212	0.395980	409.237000
17.548109	2.653850	0.396898	409.736000
17.570461	2.664028	0.397837	410.236000
17.595611	2.674033	0.398438	410.736000
17.617088	2.683654	0.398753	411.236000
17.639616	2.693360	0.399239	411.736000
17.662274	2.703899	0.399957	412.236000
17.685128	2.713667	0.400741	412.737000
17.707797	2.722471	0.401001	413.236000
17.729120	2.731082	0.401420	413.736000
17.750572	2.739389	0.401857	414.236000
17.772959	2.748008	0.402443	414.736000
17.794241	2.756596	0.402812	415.236000
17.815998	2.765480	0.403312	415.737000
17.839525	2.773785	0.404001	416.236000
17.862234	2.782003	0.404504	416.736000
17.884983	2.789535	0.405073	417.236000
17.906186	2.796935	0.405665	417.736000
17.927877	2.804746	0.406195	418.237000
17.949647	2.812677	0.406434	418.736000
17.974637	2.819864	0.406804	419.236000
17.998128	2.826433	0.407117	419.736000
18.018710	2.833743	0.407375	420.237000
18.039572	2.841486	0.407855	420.736000
18.060799	2.849569	0.408545	421.236000
18.082790	2.856094	0.408960	421.736000
18.105994	2.862097	0.409469	422.236000
18.128955	2.868741	0.410314	422.736000
18.150628	2.876054	0.410904	423.236000
18.172632	2.882465	0.411429	423.736000
18.193740	2.887691	0.411763	424.236000
18.215955	2.892942	0.412334	424.736000
18.238533	2.899117	0.412947	425.236000
18.261191	2.905661	0.413375	425.736000
18.282711	2.911984	0.413673	426.236000
18.304620	2.918601	0.413977	426.737000
18.326002	2.924288	0.414607	427.236000
18.348225	2.929574	0.415310	427.736000
18.371439	2.934357	0.415966	428.236000
18.395122	2.939880	0.416742	428.736000
18.416185	2.946261	0.417454	429.236000
18.437288	2.952395	0.417951	429.736000
18.459909	2.957877	0.418490	430.236000
18.481133	2.962464	0.418874	430.736000
18.501842	2.966511	0.419345	431.236000
18.525953	2.970992	0.420004	431.736000
18.549546	2.975355	0.420182	432.236000
18.571460	2.980482	0.420548	432.736000
18.592995	2.985743	0.421346	433.236000
18.614085	2.990770	0.421983	433.736000
18.635848	2.995080	0.422728	434.236000
18.658606	2.999903	0.423090	434.736000
18.683860	3.004017	0.423291	435.236000
18.704995	3.007934	0.423881	435.736000
18.726442	3.011999	0.424377	436.236000
18.748407	3.016263	0.424765	436.736000
18.770546	3.020580	0.425250	437.236000
18.792079	3.024897	0.425846	437.736000
18.814588	3.028913	0.426243	438.236000
18.837919	3.032046	0.427061	438.736000
18.860132	3.035063	0.427739	439.236000
18.882139	3.038432	0.428069	439.736000
18.904499	3.041447	0.428230	440.236000
18.926308	3.044035	0.429024	440.736000
18.950295	3.046792	0.429825	441.236000
18.972827	3.050038	0.430459	441.736000
18.994360	3.053824	0.430996	442.236000
19.016289	3.057529	0.431369	442.736000
19.038490	3.060889	0.432013	443.236000
19.060816	3.064449	0.432699	443.736000
19.085214	3.067509	0.433147	444.236000
19.107242	3.070076	0.433498	444.736000
19.129631	3.072381	0.433847	445.236000
19.151802	3.074721	0.434513	445.736000
19.173785	3.076950	0.434975	446.236000
19.196885	3.078592	0.435413	446.736000
19.219931	3.079912	0.436192	447.236000
19.241543	3.081461	0.436804	447.737000
19.263376	3.083046	0.437239	448.236000
19.285055	3.084600	0.437779	448.736000
19.307807	3.086039	0.437990	449.236000
19.330265	3.087617	0.438754	449.736000
19.353801	3.089009	0.439140	450.237000
19.375488	3.090231	0.439588	450.736000
19.397716	3.091757	0.440179	451.236000
19.419427	3.092815	0.440637	451.736000
19.440343	3.093814	0.441090	452.236000
19.463307	3.094901	0.441740	452.736000
19.486571	3.095670	0.442172	453.236000
19.508732	3.095784	0.442590	453.736000
19.531387	3.095371	0.443417	454.236000
19.553863	3.094538	0.444091	454.737000
19.576053	3.094312	0.444863	455.236000
19.599974	3.093819	0.445452	455.737000
19.622965	3.092509	0.446129	456.236000
19.645496	3.091585	0.446811	456.736000
19.668234	3.090359	0.447443	457.236000
19.690896	3.089246	0.447778	457.737000
19.713828	3.087848	0.448227	458.236000
19.738593	3.086599	0.448671	458.736000
19.760681	3.084802	0.449425	459.236000
19.782331	3.083443	0.450054	459.736000
19.804009	3.081809	0.450662	460.236000
19.826693	3.079705	0.451358	460.736000
19.849542	3.077419	0.451916	461.237000
19.872250	3.074987	0.452512	461.736000
19.892780	3.072309	0.453083	462.237000
19.914972	3.068956	0.453617	462.736000
19.936884	3.065752	0.454031	463.236000
19.958301	3.061951	0.454643	463.736000
19.980462	3.058062	0.455219	464.236000
20.002766	3.053476	0.455709	464.736000
20.024508	3.048934	0.456442	465.236000
20.046445	3.043739	0.457421	465.736000
20.067338	3.038449	0.458136	466.236000
20.089402	3.033130	0.458942	466.736000
20.110971	3.027773	0.459306	467.236000
20.131727	3.023190	0.459715	467.736000
20.155608	3.017886	0.460051	468.236000
20.177293	3.012222	0.460400	468.736000
20.198597	3.006544	0.461117	469.236000
20.220468	3.000420	0.461600	469.736000
20.242148	2.993897	0.462265	470.236000
20.264678	2.987174	0.462847	470.736000
20.288330	2.980301	0.463689	471.236000
20.309748	2.973253	0.464612	471.736000
20.332586	2.965078	0.465382	472.236000
20.353344	2.957036	0.465765	472.736000
20.374974	2.948783	0.466079	473.236000
20.396471	2.940151	0.466285	473.736000
20.418266	2.930841	0.466899	474.236000
20.441156	2.921475	0.467871	474.736000
20.463694	2.912285	0.468686	475.236000
20.486499	2.902887	0.469264	475.736000
20.507375	2.892447	0.469702	476.236000
20.528764	2.881437	0.470032	476.736000
20.550993	2.870171	0.470748	477.236000
20.573444	2.858673	0.471704	477.736000
20.595840	2.847511	0.472349	478.236000
20.618249	2.835719	0.473084	478.736000
20.640135	2.823476	0.473635	479.236000
20.660825	2.810837	0.474016	479.736000
20.681939	2.797711	0.474424	480.237000
20.703713	2.784697	0.474874	480.736000
20.725684	2.771405	0.475608	481.236000
20.747394	2.757915	0.476247	481.736000
20.771032	2.744211	0.476747	482.236000
20.791543	2.730415	0.477419	482.736000
20.814702	2.716681	0.478264	483.236000
20.836266	2.702224	0.478709	483.736000
20.857902	2.687503	0.479207	484.236000
20.881005	2.672900	0.479618	484.736000
20.905669	2.657228	0.480149	485.236000
20.928530	2.641318	0.480647	485.737000
20.947774	2.625946	0.481304	486.236000
20.972374	2.610222	0.482305	486.736000
20.994219	2.594760	0.483315	487.236000
21.014084	2.578936	0.484385	487.736000
21.036882	2.563294	0.484959	488.236000
21.059848	2.547638	0.485273	488.736000
21.083080	2.532185	0.485804	489.236000
21.105832	2.516822	0.486335	489.737000
21.128190	2.501037	0.487031	490.236000
21.150208	2.485022	0.487620	490.736000
21.173446	2.469286	0.488688	491.236000
21.196461	2.454249	0.489449	491.736000
21.219420	2.439451	0.490032	492.236000
21.241155	2.424573	0.490829	492.736000
21.265941	2.409947	0.491479	493.236000
21.287596	2.395055	0.492141	493.736000
21.312135	2.379740	0.492828	494.236000
21.332347	2.364547	0.493580	494.737000
21.355527	2.349361	0.494097	495.236000
21.376836	2.334670	0.494928	495.736000
21.402442	2.320674	0.495342	496.236000
21.424847	2.306985	0.495782	496.736000
21.448448	2.292618	0.496719	497.236000
21.467080	2.277927	0.497885	497.736000
21.485857	2.263472	0.498846	498.236000
21.506124	2.249292	0.499609	498.736000
21.529424	2.235147	0.500131	499.236000
21.551041	2.220382	0.500612	499.736000
21.574827	2.205141	0.501385	500.237000
21.596518	2.189977	0.502278	500.736000
21.617611	2.174384	0.502750	501.236000
21.639856	2.158444	0.503529	501.736000
21.660886	2.142762	0.504353	502.236000
21.683240	2.126239	0.504881	502.736000
21.710205	2.109580	0.505388	503.236000
21.729050	2.092769	0.506158	503.736000
21.749463	2.076131	0.506934	504.236000
21.771784	2.058708	0.507844	504.736000
21.792325	2.040565	0.508486	505.236000
21.814497	2.021727	0.509158	505.737000
21.838823	2.003375	0.509902	506.236000
21.859193	1.984830	0.510604	506.736000
21.881990	1.965544	0.511550	507.236000
21.904033	1.945143	0.512477	507.736000
21.925346	1.924170	0.513386	508.236000
21.947684	1.902937	0.514159	508.736000
21.970414	1.881871	0.514423	509.236000
21.994684	1.860265	0.514891	509.736000
22.015286	1.837339	0.515898	510.236000
22.039572	1.813955	0.516936	510.736000
22.062774	1.789953	0.517855	511.236000
22.080293	1.765102	0.518498	511.736000
22.101470	1.739402	0.519252	512.236000
22.122736	1.713025	0.519838	512.736000
22.144113	1.686215	0.520578	513.236000
22.167575	1.659061	0.521313	513.736000
22.189709	1.631693	0.522252	514.236000
22.211216	1.603748	0.523123	514.736000
22.232904	1.575087	0.523505	515.236000
22.254712	1.545093	0.523815	515.736000
22.278046	1.513786	0.524193	516.236000
22.301152	1.481512	0.524923	516.737000
22.323042	1.448461	0.525461	517.236000
22.346449	1.414568	0.526408	517.736000
22.368746	1.378380	0.527162	518.236000
22.391085	1.341442	0.527753	518.736000
22.416096	1.304084	0.528217	519.236000
22.438947	1.265918	0.528350	519.736000
22.460770	1.226672	0.528864	520.236000
22.482693	1.186165	0.529276	520.737000
22.505884	1.144751	0.529574	521.236000
22.531529	1.102520	0.529778	521.736000
22.554582	1.059618	0.530288	522.236000
22.577943	1.016918	0.530536	522.736000
22.601556	0.973371	0.530815	523.236000
22.625360	0.929379	0.530816	523.736000
22.647768	0.885817	0.531363	524.236000
22.669920	0.843186	0.531720	524.736000
22.693500	0.801889	0.531830	525.236000
22.714815	0.761783	0.532074	525.736000
22.738513	0.722944	0.532131	526.236000
22.761295	0.686282	0.532245	526.736000
22.783935	0.652021	0.532282	527.236000
22.805622	0.619992	0.532566	527.736000
22.827711	0.590032	0.532596	528.236000
22.850764	0.562626	0.532912	528.736000
22.874935	0.538542	0.533054	529.236000
22.897668	0.516872	0.532900	529.737000
22.919074	0.498040	0.532921	530.236000
22.941568	0.482741	0.533007	530.737000
22.963684	0.469533	0.532754	531.236000
22.986739	0.458987	0.532874	531.736000
23.010839	0.451834	0.532905	532.236000
23.032404	0.447087	0.533005	532.736000
23.055262	0.444684	0.532948	533.236000
23.077451	0.444787	0.532914	533.736000
23.098962	0.446985	0.532948	534.236000
23.121806	0.451389	0.532918	534.736000
23.147308	0.457616	0.532840	535.236000
23.169661	0.465816	0.532681	535.736000
23.192479	0.475917	0.532462	536.236000
23.213537	0.487571	0.532895	536.736000
23.236858	0.501037	0.532993	537.236000
23.260910	0.515861	0.533022	537.736000
23.283302	0.532147	0.532884	538.236000
23.305784	0.550062	0.532750	538.736000
23.327713	0.569972	0.532564	539.236000
23.350146	0.590801	0.532314	539.736000
23.374289	0.613298	0.532401	540.236000
23.397720	0.637416	0.532719	540.736000
23.419945	0.663699	0.532965	541.236000
23.442885	0.691487	0.532914	541.736000
23.465454	0.721173	0.533021	542.236000
23.489643	0.752677	0.533003	542.736000
23.513303	0.786014	0.532805	543.236000
23.535013	0.821514	0.532726	543.736000
23.557743	0.858638	0.532863	544.237000
23.579324	0.897812	0.533161	544.736000
23.602756	0.938546	0.533433	545.236000
23.627081	0.981574	0.533864	545.736000
23.649588	1.025678	0.533994	546.236000
23.671952	1.071122	0.534194	546.736000
23.693829	1.119413	0.534099	547.236000
23.715689	1.169026	0.534173	547.736000
23.737779	1.219475	0.534344	548.236000
23.762297	1.271206	0.534539	548.736000
23.785022	1.323920	0.534547	549.236000
23.806152	1.376590	0.534435	549.736000
23.829941	1.430110	0.534738	550.236000
23.852344	1.484274	0.535107	550.737000
23.875932	1.538427	0.535484	551.237000
23.899016	1.592502	0.535632	551.736000
23.921522	1.646981	0.536241	552.236000
23.944477	1.701260	0.536849	552.736000
23.966536	1.755332	0.537075	553.236000
23.989434	1.808869	0.537157	553.736000
24.012888	1.861999	0.537303	554.236000
24.035004	1.914953	0.537693	554.736000
24.057346	1.967213	0.538159	555.236000
24.079755	2.019264	0.538665	555.736000
24.103577	2.070804	0.539087	556.236000
24.128642	2.121259	0.539835	556.736000
24.151501	2.170720	0.540355	557.236000
24.173690	2.218980	0.540763	557.736000
24.195475	2.266727	0.540812	558.236000
24.219299	2.314146	0.540678	558.736000
24.243243	2.360462	0.540683	559.236000
24.264081	2.405557	0.541067	559.736000
24.286069	2.450034	0.541683	560.236000
24.307639	2.492930	0.542321	560.736000
24.329847	2.534562	0.542862	561.237000
24.353205	2.575328	0.543269	561.736000
24.376042	2.615014	0.543719	562.236000
24.398452	2.654101	0.544325	562.736000
24.421559	2.692061	0.544781	563.236000
24.444082	2.729856	0.545242	563.736000
24.465994	2.767512	0.545789	564.237000
24.489240	2.804367	0.546395	564.736000
24.511008	2.839873	0.546938	565.236000
24.534933	2.874708	0.547027	565.736000
24.555984	2.909197	0.547222	566.236000
24.578979	2.943394	0.547769	566.736000
24.601200	2.976561	0.548440	567.236000
24.625844	3.008750	0.548923	567.736000
24.648877	3.040089	0.549330	568.236000
24.670151	3.070297	0.549715	568.736000
24.693079	3.100408	0.550204	569.236000
24.715489	3.130116	0.550767	569.737000
24.738102	3.159944	0.551226	570.236000
24.761548	3.188534	0.551565	570.736000
24.784346	3.216196	0.551807	571.236000
24.806130	3.243731	0.551982	571.736000
24.827879	3.270561	0.552643	572.236000
24.849929	3.296720	0.553292	572.736000
24.873872	3.322524	0.553450	573.236000
24.897969	3.347563	0.554056	573.736000
24.920078	3.372896	0.554882	574.236000
24.942490	3.397085	0.555569	574.736000
24.963840	3.420848	0.556228	575.236000
24.985846	3.444146	0.556612	575.736000
25.012744	3.466849	0.556909	576.236000
25.035975	3.489543	0.556897	576.736000
25.056664	3.511737	0.557435	577.236000
25.078632	3.533676	0.558087	577.736000
25.101948	3.555042	0.558594	578.236000
25.126622	3.576371	0.559115	578.736000
25.148925	3.597492	0.559722	579.236000
25.170178	3.618045	0.560072	579.736000
25.192627	3.638559	0.560429	580.236000
25.215302	3.658776	0.561097	580.736000
25.238578	3.679066	0.561776	581.236000
25.261555	3.699020	0.562192	581.736000
25.285679	3.717732	0.562973	582.236000
25.307833	3.736638	0.563661	582.736000
25.331761	3.755323	0.564159	583.236000
25.353417	3.773803	0.564668	583.736000
25.378290	3.791423	0.565137	584.236000
25.399866	3.809354	0.565570	584.736000
25.424612	3.826872	0.565753	585.236000
25.446580	3.843778	0.565995	585.736000
25.469074	3.859624	0.566610	586.236000
25.491961	3.875658	0.567108	586.736000
25.515154	3.891616	0.567437	587.236000
25.536451	3.907516	0.567866	587.736000
25.559128	3.923210	0.568753	588.236000
25.581470	3.938961	0.569504	588.736000
25.605338	3.954321	0.569784	589.236000
25.627484	3.969859	0.569998	589.736000
25.649176	3.984829	0.570271	590.236000
25.672324	3.999153	0.570667	590.736000
25.693473	4.013247	0.571258	591.236000
25.716203	4.026968	0.571998	591.736000
25.737934	4.040808	0.572546	592.236000
25.762356	4.053738	0.573122	592.736000
25.785573	4.066527	0.573604	593.236000
25.807149	4.080006	0.574077	593.736000
25.829517	4.093498	0.574709	594.236000
25.852106	4.106498	0.575340	594.736000
25.874432	4.119253	0.575594	595.237000
25.898602	4.131754	0.575958	595.736000
25.918951	4.144151	0.576487	596.236000
25.941191	4.156312	0.577181	596.736000
25.962645	4.168419	0.577631	597.236000
25.984315	4.179947	0.578210	597.736000
26.006096	4.191555	0.579096	598.236000
26.029843	4.203163	0.579886	598.736000
26.053107	4.214717	0.580435	599.236000
26.074796	4.226504	0.580587	599.736000
26.100812	4.238559	0.580880	600.236000
26.115805	4.250202	0.581533	600.736000
26.138382	4.260928	0.582219	601.236000
26.160009	4.271352	0.582624	601.736000
26.184859	4.281944	0.583017	602.236000
26.209782	4.291829	0.583596	602.736000
26.231401	4.301654	0.584119	603.236000
26.253289	4.311528	0.584584	603.736000
26.273022	4.321214	0.585059	604.236000
26.293884	4.330824	0.585873	604.736000
26.312787	4.340450	0.586369	605.236000
26.340104	4.349540	0.586938	605.736000
26.362374	4.358173	0.587568	606.236000
26.388171	4.367856	0.588098	606.736000
26.410857	4.377247	0.588562	607.236000
26.430398	4.386427	0.589334	607.737000
26.457017	4.395453	0.589874	608.236000
26.486487	4.404296	0.590164	608.736000
26.500137	4.412910	0.590604	609.236000
26.522252	4.421990	0.590842	609.737000
26.540158	4.430227	0.591113	610.236000
26.560229	4.437895	0.591288	610.736000
26.585707	4.446029	0.591687	611.236000
26.607072	4.453982	0.592468	611.736000
26.625964	4.461896	0.593122	612.236000
26.651827	4.469571	0.593734	612.736000
26.675455	4.477510	0.594297	613.237000
26.696921	4.485486	0.595021	613.736000
26.720294	4.493083	0.595682	614.236000
26.742651	4.500475	0.596407	614.736000
26.762289	4.508656	0.596982	615.236000
26.785538	4.515932	0.596940	615.736000
26.810128	4.523406	0.597248	616.236000
26.827774	4.530477	0.597732	616.736000
26.850021	4.537571	0.598469	617.236000
26.869357	4.544899	0.599254	617.736000
26.893173	4.551257	0.599791	618.236000
26.916302	4.557456	0.600244	618.736000
26.937894	4.563357	0.600356	619.236000
26.963519	4.569727	0.600706	619.736000
26.985968	4.576247	0.600984	620.236000
27.005911	4.582688	0.601734	620.736000
27.026672	4.588867	0.602478	621.237000
27.049697	4.595041	0.603017	621.736000
27.072880	4.601768	0.603581	622.236000
27.096634	4.608098	0.604386	622.736000
27.119211	4.614472	0.604818	623.236000
27.141498	4.620725	0.605237	623.736000
27.163828	4.625953	0.605926	624.236000
27.186676	4.631656	0.606537	624.736000
27.211099	4.637517	0.607242	625.236000
27.232992	4.643878	0.607726	625.736000
27.257295	4.649815	0.607978	626.236000
27.278001	4.655897	0.608289	626.736000
27.300528	4.661446	0.608810	627.236000
27.324141	4.667176	0.609375	627.736000
27.347245	4.672729	0.609684	628.236000
27.369925	4.678291	0.610244	628.736000
27.391544	4.683765	0.610975	629.236000
27.415411	4.689422	0.611747	629.737000
27.437889	4.694407	0.612551	630.236000
27.462512	4.699977	0.612982	630.736000
27.485121	4.705161	0.613629	631.236000
27.507219	4.710054	0.614025	631.736000
27.530112	4.714574	0.614564	632.236000
27.552083	4.719284	0.615024	632.736000
27.575851	4.724303	0.615593	633.236000
27.599875	4.729671	0.616088	633.736000
27.622964	4.734161	0.616672	634.236000
27.647095	4.738402	0.617482	634.736000
27.669720	4.742841	0.618120	635.236000
27.691012	4.746943	0.618654	635.736000
27.714912	4.751766	0.619225	636.236000
27.737766	4.756134	0.619374	636.736000
27.759103	4.760070	0.619890	637.236000
27.780944	4.763649	0.620570	637.737000
27.801965	4.768532	0.620805	638.237000
27.825374	4.773296	0.621223	638.736000
27.849594	4.777614	0.621728	639.236000
27.870908	4.781525	0.622254	639.736000
27.892963	4.785515	0.622507	640.236000
27.915148	4.789387	0.622922	640.736000
27.937819	4.792816	0.623158	641.236000
27.962016	4.796516	0.623342	641.736000
27.985346	4.800178	0.623705	642.236000
28.006930	4.803289	0.624530	642.736000
28.029581	4.806578	0.625546	643.236000
28.051523	4.809877	0.626333	643.736000
28.076257	4.813204	0.626825	644.236000
28.099936	4.816583	0.627535	644.736000
28.123224	4.819854	0.628405	645.236000
28.147951	4.823585	0.628826	645.736000
28.170032	4.827178	0.629069	646.236000
28.195862	4.830479	0.629598	646.736000
28.218214	4.833677	0.630086	647.236000
28.241052	4.836788	0.630646	647.736000
28.262966	4.840230	0.631205	648.236000
28.285455	4.843797	0.631899	648.736000
28.308698	4.847030	0.632814	649.236000
28.332190	4.850122	0.633590	649.736000
28.354120	4.853597	0.633871	650.236000
28.375302	4.856860	0.634268	650.736000
28.397841	4.859959	0.634775	651.236000
28.422014	4.862797	0.635252	651.736000
28.448728	4.865424	0.635832	652.236000
28.471071	4.868078	0.636298	652.736000
28.493565	4.870510	0.637030	653.237000
28.517191	4.873245	0.637727	653.736000
28.541589	4.875717	0.638119	654.236000
28.565265	4.877657	0.638326	654.736000
28.587323	4.880398	0.638985	655.236000
28.609945	4.883633	0.639847	655.736000
28.634330	4.886169	0.640286	656.236000
28.658352	4.888322	0.640603	656.736000
28.681655	4.890525	0.641240	657.236000
28.705005	4.893078	0.641905	657.736000
28.728554	4.895645	0.642577	658.236000
28.752905	4.897897	0.643111	658.736000
28.778564	4.900741	0.643565	659.236000
28.802206	4.903527	0.644165	659.736000
28.825484	4.905989	0.644535	660.236000
28.851361	4.909387	0.645037	660.736000
28.875238	4.911811	0.645884	661.236000
28.897564	4.914389	0.646536	661.736000
28.919812	4.916931	0.647033	662.236000
28.944662	4.919036	0.647715	662.736000
28.969166	4.920640	0.648208	663.236000
28.991894	4.922584	0.648556	663.737000
29.012808	4.924753	0.648938	664.236000
29.035486	4.926440	0.649350	664.736000
29.058502	4.928304	0.649779	665.236000
29.083316	4.930055	0.650375	665.736000
29.105681	4.932103	0.651001	666.236000
29.127871	4.933804	0.651479	666.736000
29.149583	4.935438	0.652036	667.236000
29.172426	4.937041	0.652128	667.736000
29.197516	4.939185	0.652413	668.236000
29.220609	4.941665	0.652867	668.736000
29.243860	4.944903	0.653530	669.236000
29.266663	4.947289	0.654117	669.736000
29.289577	4.948472	0.654638	670.236000
29.314338	4.946289	0.655429	670.736000
29.337910	4.943628	0.656297	671.236000
29.360101	4.943736	0.656842	671.737000
29.381574	4.945902	0.657314	672.236000
29.403556	4.948019	0.657498	672.736000
29.426101	4.947430	0.657911	673.236000
29.450562	4.948819	0.658428	673.736000
29.472363	4.950914	0.658864	674.236000
29.494653	4.953949	0.659122	674.736000
29.516946	4.956305	0.659546	675.236000
29.539974	4.958955	0.660359	675.736000
29.564716	4.961422	0.661053	676.236000
29.587763	4.963565	0.661767	676.736000
29.610072	4.965569	0.662234	677.236000
29.631360	4.967772	0.662691	677.736000
29.654077	4.969838	0.663048	678.237000
29.677002	4.972736	0.663390	678.736000
29.701854	4.975305	0.663962	679.237000
29.725213	4.976586	0.664517	679.736000
29.746702	4.977149	0.665423	680.236000
29.768666	4.978151	0.666356	680.736000
29.790640	4.979797	0.667049	681.236000
29.812960	4.981750	0.667628	681.737000
29.835924	4.983489	0.668390	682.236000
29.858861	4.985283	0.668824	682.736000
29.880522	4.986718	0.669232	683.236000
29.902984	4.988680	0.669745	683.736000
29.925708	4.990334	0.670330	684.236000
29.949627	4.991585	0.670665	684.736000
29.974423	4.992847	0.670938	685.236000
29.997854	4.994189	0.671391	685.736000
30.020517	4.995807	0.672198	686.236000
30.045143	4.998174	0.672816	686.736000
30.069512	5.001035	0.673233	687.236000
30.093060	5.003280	0.673454	687.736000
30.116345	5.004266	0.673710	688.236000
30.137114	5.005849	0.674404	688.736000
30.160145	5.007726	0.675005	689.236000
30.184857	5.009790	0.675342	689.736000
30.206259	5.011603	0.675582	690.236000
30.228990	5.013751	0.676176	690.736000
30.251736	5.015814	0.677030	691.236000
30.274742	5.017407	0.677569	691.736000
30.298686	5.019458	0.677961	692.236000
30.321915	5.021808	0.678168	692.736000
30.345365	5.024087	0.678757	693.236000
30.367710	5.026637	0.679461	693.736000
30.390634	5.029224	0.680518	694.236000
30.415046	5.031085	0.680787	694.736000
30.439793	5.033199	0.680869	695.236000
30.462708	5.035311	0.681428	695.736000
30.485673	5.037545	0.682160	696.236000
30.510569	5.039671	0.682438	696.736000
30.533272	5.041940	0.683000	697.236000
30.555691	5.043736	0.683638	697.736000
30.578427	5.045331	0.684090	698.236000
30.601593	5.047860	0.684401	698.736000
30.624813	5.051168	0.684800	699.236000
30.646432	5.054249	0.685229	699.736000
30.671602	5.056742	0.685758	700.236000
30.693766	5.059321	0.686524	700.736000
30.716712	5.062600	0.687295	701.236000
30.743420	5.065591	0.687738	701.736000
30.763807	5.068309	0.687990	702.236000
30.789894	5.071268	0.688534	702.736000
30.813247	5.074182	0.688896	703.236000
30.833822	5.077546	0.689225	703.736000
30.858274	5.080482	0.689659	704.236000
30.882432	5.083676	0.689944	704.736000
30.910993	5.087217	0.690190	705.236000
30.934099	5.090889	0.690946	705.736000
30.956147	5.094291	0.691566	706.236000
30.976635	5.097909	0.692159	706.736000
31.000325	5.101657	0.692708	707.236000
31.024546	5.104805	0.693342	707.736000
31.046507	5.108665	0.694076	708.236000
31.061565	5.112063	0.694376	708.736000
31.083844	5.115409	0.694581	709.236000
31.105725	5.119130	0.694886	709.736000
31.127236	5.122402	0.695410	710.236000
31.150204	5.125753	0.695818	710.736000
31.173092	5.129036	0.696517	711.236000
31.198209	5.132967	0.696995	711.736000
31.222152	5.136925	0.697589	712.236000
31.250429	5.141000	0.698157	712.736000
31.279285	5.145391	0.698692	713.236000
31.292679	5.149558	0.698909	713.736000
31.310320	5.154081	0.699635	714.236000
31.332282	5.158583	0.700262	714.736000
31.353528	5.162204	0.700405	715.236000
31.376124	5.165671	0.700685	715.736000
31.395734	5.169734	0.701527	716.236000
31.427081	5.174108	0.701857	716.736000
31.446537	5.178939	0.701947	717.236000
31.472604	5.183416	0.702119	717.736000
31.494473	5.188022	0.702674	718.236000
31.515240	5.192411	0.703434	718.736000
31.537850	5.196109	0.704060	719.236000
31.566624	5.200805	0.704417	719.736000
31.584972	5.206098	0.704712	720.236000
31.606379	5.211379	0.704950	720.736000
31.628424	5.216748	0.705373	721.236000
31.652155	5.221685	0.705990	721.736000
31.678555	5.226566	0.706460	722.236000
31.702933	5.231164	0.706866	722.736000
31.717017	5.235824	0.707320	723.236000
31.738920	5.241110	0.708008	723.737000
31.760207	5.245743	0.708648	724.236000
31.781231	5.249676	0.708969	724.736000
31.800835	5.254223	0.709521	725.236000
31.823987	5.258787	0.710468	725.736000
31.848829	5.263650	0.711196	726.237000
31.868244	5.269250	0.711741	726.736000
31.890544	5.273845	0.712057	727.237000
31.912140	5.277955	0.712356	727.736000
31.936527	5.282953	0.712813	728.236000
31.960133	5.288906	0.713216	728.736000
31.986262	5.294539	0.713658	729.236000
32.007915	5.300010	0.714093	729.736000
32.027927	5.305449	0.714539	730.236000
32.052865	5.311110	0.715022	730.736000
32.076766	5.316440	0.715340	731.236000
32.095568	5.322135	0.715878	731.736000
32.120934	5.327974	0.716492	732.236000
32.142237	5.332759	0.717018	732.736000
32.160702	5.337133	0.717478	733.236000
32.181087	5.341267	0.718292	733.737000
32.204511	5.345814	0.718952	734.236000
32.225910	5.351211	0.719437	734.736000
32.247663	5.356137	0.720037	735.236000
32.271099	5.361533	0.720423	735.736000
32.295524	5.366928	0.720845	736.237000
32.316648	5.371467	0.721283	736.736000
32.339386	5.375543	0.721814	737.236000
32.361396	5.380269	0.722617	737.736000
32.384477	5.385438	0.723036	738.236000
32.408160	5.390826	0.723400	738.736000
32.431908	5.396290	0.723942	739.236000
32.454980	5.401327	0.724389	739.736000
32.478968	5.405989	0.724610	740.236000
32.500489	5.411071	0.725173	740.736000
32.523680	5.416444	0.725236	741.236000
32.545546	5.420720	0.725730	741.736000
32.570711	5.424714	0.726476	742.236000
32.591796	5.430079	0.726981	742.736000
32.615029	5.435800	0.727222	743.236000
32.635218	5.440938	0.727693	743.737000
32.659061	5.445842	0.728182	744.236000
32.684491	5.450147	0.728642	744.736000
32.706727	5.454790	0.729265	745.236000
32.730481	5.459934	0.730044	745.736000
32.752904	5.465027	0.730176	746.237000
32.776798	5.469521	0.730778	746.736000
32.801566	5.474286	0.731486	747.236000
32.826095	5.478935	0.732142	747.736000
32.848643	5.483357	0.732651	748.236000
32.871104	5.488474	0.733221	748.736000
32.895096	5.492686	0.733629	749.236000
32.919611	5.496511	0.733841	749.736000
32.942905	5.500249	0.734437	750.236000
32.965438	5.504763	0.735156	750.736000
32.988352	5.509930	0.735908	751.236000
33.012838	5.514966	0.736024	751.736000
33.035584	5.519361	0.736250	752.236000
33.057585	5.523946	0.736991	752.736000
33.080691	5.528818	0.737514	753.236000
33.103587	5.533049	0.738125	753.736000
33.126434	5.537962	0.738893	754.236000
33.150300	5.542308	0.739567	754.736000
33.172968	5.546499	0.739751	755.236000
33.194461	5.550902	0.740346	755.736000
33.217143	5.554931	0.740774	756.236000
33.237364	5.558991	0.741335	756.736000
33.258956	5.561522	0.742086	757.237000
33.281968	5.564364	0.742715	757.736000
33.305724	5.569421	0.743389	758.236000
33.327865	5.574313	0.744026	758.736000
33.349064	5.578335	0.744436	759.236000
33.370865	5.581212	0.744710	759.736000
33.394114	5.583562	0.745132	760.236000
33.418418	5.587100	0.745543	760.737000
33.444137	5.590883	0.746092	761.236000
33.465907	5.594867	0.746701	761.737000
33.488608	5.597959	0.747265	762.236000
33.510576	5.600827	0.747777	762.736000
33.532033	5.604091	0.748414	763.236000
33.553888	5.607590	0.748925	763.736000
33.578421	5.611208	0.749669	764.236000
33.601021	5.614652	0.750352	764.736000
33.623712	5.617730	0.750757	765.236000
33.645191	5.621186	0.750898	765.736000
33.666620	5.623982	0.751181	766.236000
33.688731	5.627457	0.751454	766.736000
33.713292	5.629684	0.751924	767.236000
33.735060	5.631783	0.752563	767.736000
33.757429	5.634668	0.752940	768.237000
33.781556	5.638299	0.753413	768.736000
33.804266	5.641512	0.754016	769.236000
33.826450	5.644832	0.754600	769.736000
33.849412	5.647527	0.755359	770.236000
33.871762	5.650574	0.755870	770.736000
33.894385	5.653629	0.756089	771.236000
33.917008	5.655763	0.756836	771.737000
33.939524	5.658169	0.757687	772.236000
33.963594	5.660584	0.758449	772.736000
33.987451	5.662445	0.759035	773.236000
34.010310	5.664565	0.759404	773.736000
34.032678	5.667646	0.759626	774.236000
34.053898	5.670359	0.760261	774.736000
34.077528	5.673561	0.760981	775.236000
34.103043	5.675721	0.761406	775.736000
34.124427	5.676769	0.761776	776.236000
34.147821	5.678585	0.762274	776.736000
34.170444	5.680671	0.762879	777.236000
34.192998	5.682814	0.763467	777.736000
34.217292	5.684820	0.764027	778.236000
34.241191	5.686931	0.764730	778.736000
34.262683	5.689364	0.765474	779.236000
34.285882	5.691984	0.765855	779.736000
34.307965	5.694306	0.766121	780.236000
34.330314	5.695729	0.766598	780.736000
34.353531	5.694180	0.767221	781.236000
34.376304	5.693290	0.767621	781.736000
34.399319	5.692987	0.767726	782.236000
34.421606	5.692965	0.768228	782.737000
34.444326	5.693966	0.768828	783.236000
34.466080	5.695941	0.769096	783.736000
34.489610	5.696826	0.769417	784.236000
34.512744	5.697530	0.770031	784.736000
34.534345	5.697770	0.770708	785.236000
34.556592	5.698573	0.771364	785.736000
34.578329	5.699094	0.772309	786.236000
34.602044	5.699449	0.772997	786.736000
34.626258	5.700893	0.773433	787.236000
34.648615	5.702710	0.773914	787.736000
34.671304	5.704087	0.774385	788.236000
34.694120	5.704969	0.774806	788.736000
34.716861	5.705369	0.775420	789.236000
34.739742	5.705491	0.775938	789.736000
34.762704	5.705687	0.776537	790.236000
34.784183	5.704473	0.777145	790.736000
34.806241	5.703642	0.777944	791.236000
34.828625	5.703929	0.778458	791.736000
34.850744	5.705461	0.778632	792.236000
34.875187	5.706840	0.779051	792.737000
34.899087	5.708025	0.779736	793.236000
34.921298	5.710463	0.780263	793.736000
34.942609	5.711140	0.780715	794.236000
34.965544	5.709051	0.781078	794.736000
34.987908	5.706284	0.781553	795.236000
35.011378	5.705177	0.782311	795.737000
35.034816	5.705032	0.782996	796.236000
35.057364	5.705314	0.783534	796.736000
35.079137	5.705306	0.784128	797.236000
35.101970	5.705001	0.784610	797.736000
35.124348	5.705529	0.785073	798.236000
35.149673	5.705729	0.785489	798.736000
35.172448	5.705428	0.785728	799.236000
35.196066	5.704687	0.786388	799.736000
35.217648	5.704070	0.787190	800.236000
35.239952	5.703827	0.787811	800.736000
35.263440	5.703096	0.788310	801.236000
35.287107	5.701440	0.788667	801.736000
35.309223	5.698611	0.789245	802.236000
35.331832	5.695839	0.790093	802.737000
35.354731	5.695517	0.790638	803.236000
35.377266	5.695130	0.791253	803.736000
35.399719	5.694720	0.791875	804.236000
35.422899	5.693227	0.792456	804.736000
35.443714	5.691465	0.792975	805.236000
35.468600	5.690833	0.793315	805.736000
35.490155	5.689081	0.793796	806.236000
35.514948	5.686483	0.794317	806.736000
35.540674	5.684175	0.794701	807.236000
35.561168	5.681544	0.795337	807.736000
35.583520	5.678275	0.795965	808.236000
35.604519	5.675773	0.796657	808.736000
35.625151	5.673423	0.796957	809.236000
35.650555	5.671934	0.797483	809.736000
35.673138	5.671757	0.798135	810.236000
35.699554	5.675460	0.798646	810.736000
35.719919	5.677550	0.799145	811.236000
35.742535	5.678221	0.799815	811.737000
35.767180	5.678486	0.800264	812.236000
35.789127	5.676827	0.800923	812.736000
35.812090	5.675355	0.801370	813.236000
35.841182	5.672723	0.801775	813.736000
35.861261	5.670359	0.802591	814.236000
35.879483	5.668447	0.803488	814.736000
35.899871	5.665424	0.804172	815.236000
35.920767	5.660852	0.804471	815.737000
35.942772	5.655746	0.804901	816.236000
35.967834	5.651860	0.805214	816.736000
35.997274	5.648786	0.805813	817.236000
36.014045	5.645088	0.806387	817.736000
36.040354	5.641561	0.806829	818.236000
36.065649	5.638240	0.807387	818.736000
36.080634	5.633378	0.807947	819.236000
36.100670	5.629171	0.808787	819.736000
36.120651	5.626841	0.809208	820.236000
36.144415	5.624631	0.809657	820.736000
36.161334	5.621319	0.810054	821.236000
36.185757	5.617672	0.810478	821.736000
36.206122	5.612531	0.811229	822.236000
36.226302	5.607132	0.811658	822.736000
36.247694	5.604106	0.812073	823.236000
36.272468	5.600904	0.812731	823.736000
36.295310	5.597027	0.813511	824.236000
36.325921	5.592984	0.813846	824.736000
36.351189	5.588012	0.814031	825.236000
36.361432	5.582730	0.814547	825.737000
36.392368	5.578302	0.815514	826.236000
36.417053	5.574052	0.816424	826.736000
36.433252	5.569485	0.816945	827.236000
36.459892	5.564479	0.817583	827.736000
36.482262	5.559620	0.817819	828.236000
36.508533	5.554675	0.818285	828.736000
36.533526	5.549730	0.818861	829.236000
36.555534	5.545472	0.819461	829.736000
36.576922	5.540418	0.820101	830.237000
36.598117	5.533619	0.820548	830.736000
36.621704	5.526073	0.821121	831.236000
36.646255	5.520274	0.821915	831.736000
36.667080	5.514598	0.822568	832.237000
36.684888	5.509915	0.822923	832.736000
36.707470	5.505728	0.823569	833.236000
36.723701	5.500749	0.824362	833.736000
36.742849	5.494811	0.824723	834.236000
36.767240	5.487969	0.825040	834.736000
36.791708	5.481110	0.825479	835.236000
36.809320	5.475638	0.825708	835.736000
36.833203	5.470075	0.826021	836.236000
36.855618	5.463474	0.826904	836.736000
36.873280	5.458124	0.827682	837.237000
36.898601	5.452368	0.828134	837.736000
36.923523	5.446334	0.828645	838.236000
36.942546	5.439385	0.828980	838.736000
36.966369	5.432577	0.829516	839.236000
36.989428	5.425395	0.830402	839.736000
37.013925	5.417615	0.831179	840.236000
37.035748	5.409247	0.831869	840.736000
37.058890	5.400720	0.832396	841.236000
37.084595	5.393354	0.832793	841.736000
37.105139	5.386631	0.833300	842.236000
37.127679	5.378612	0.834117	842.736000
37.155271	5.369985	0.834743	843.236000
37.174517	5.361465	0.835264	843.736000
37.197616	5.353482	0.835633	844.236000
37.223659	5.345596	0.835855	844.736000
37.242348	5.337875	0.836157	845.236000
37.267493	5.329751	0.836822	845.736000
37.284802	5.321965	0.837415	846.236000
37.309640	5.312938	0.837892	846.737000
37.332707	5.304614	0.838552	847.236000
37.354000	5.296332	0.839372	847.736000
37.375104	5.287729	0.840309	848.236000
37.400868	5.279033	0.841208	848.736000
37.425124	5.269388	0.841712	849.236000
37.446067	5.258986	0.842177	849.736000
37.469315	5.249270	0.843059	850.237000
37.490563	5.240215	0.843583	850.736000
37.515182	5.231377	0.843821	851.236000
37.535934	5.222131	0.844293	851.736000
37.559436	5.212693	0.844828	852.236000
37.582669	5.204141	0.845527	852.736000
37.604200	5.194373	0.846309	853.236000
37.626073	5.184911	0.846552	853.736000
37.647554	5.176214	0.846604	854.236000
37.669719	5.168847	0.847204	854.736000
37.692765	5.161338	0.847952	855.236000
37.715707	5.153189	0.848565	855.736000
37.737277	5.144912	0.849072	856.236000
37.759418	5.135589	0.849740	856.736000
37.781119	5.126826	0.850336	857.236000
37.802362	5.118193	0.850853	857.736000
37.826700	5.109363	0.851398	858.236000
37.852101	5.100432	0.852182	858.736000
37.873247	5.091219	0.852541	859.236000
37.897339	5.083123	0.852976	859.736000
37.919061	5.074791	0.853921	860.236000
37.944312	5.066192	0.854335	860.736000
37.965378	5.056679	0.854636	861.236000
37.988849	5.047209	0.855311	861.736000
38.012451	5.038176	0.856007	862.236000
38.035218	5.028657	0.856476	862.736000
38.057902	5.018819	0.857113	863.236000
38.083328	5.009468	0.857663	863.736000
38.107211	5.001581	0.858225	864.236000
38.131168	4.993319	0.858676	864.736000
38.154475	4.984092	0.859477	865.236000
38.180380	4.975009	0.860500	865.736000
38.203271	4.965263	0.861015	866.236000
38.225061	4.956138	0.861308	866.736000
38.246358	4.947081	0.861810	867.236000
38.269165	4.936700	0.862222	867.736000
38.293003	4.926439	0.862419	868.236000
38.316680	4.916799	0.863053	868.736000
38.339471	4.906510	0.864154	869.236000
38.362264	4.896539	0.864992	869.736000
38.386227	4.886719	0.865588	870.236000
38.409818	4.875824	0.866056	870.736000
38.435294	4.865112	0.866358	871.236000
38.458441	4.855304	0.867072	871.736000
38.481142	4.846302	0.868077	872.236000
38.504905	4.836617	0.868827	872.736000
38.530784	4.826545	0.869628	873.236000
38.555088	4.815521	0.870245	873.736000
38.579296	4.804087	0.870857	874.236000
38.603183	4.794047	0.871475	874.736000
38.629904	4.784547	0.872078	875.236000
38.653041	4.775163	0.872748	875.737000
38.676413	4.765518	0.872955	876.236000
38.698138	4.754935	0.873544	876.736000
38.721335	4.744183	0.874356	877.236000
38.745562	4.732835	0.874925	877.736000
38.768532	4.721267	0.875349	878.236000
38.790964	4.710089	0.875487	878.736000
38.813488	4.698859	0.875895	879.236000
38.838582	4.689084	0.876342	879.736000
38.861725	4.678913	0.877056	880.236000
38.884183	4.668432	0.877939	880.736000
38.906091	4.658458	0.878701	881.236000
38.928085	4.647146	0.879576	881.736000
38.952176	4.635348	0.880202	882.236000
38.974796	4.623741	0.880931	882.736000
38.996746	4.612841	0.881588	883.237000
39.018605	4.602122	0.881850	883.736000
39.040548	4.592800	0.881954	884.236000
39.065863	4.582516	0.882486	884.736000
39.088455	4.571104	0.882962	885.236000
39.110281	4.560560	0.883769	885.736000
39.131741	4.551091	0.884665	886.236000
39.154642	4.540701	0.885297	886.736000
39.177480	4.529307	0.885749	887.236000
39.202280	4.518086	0.886343	887.736000
39.223006	4.506639	0.887222	888.236000
39.244154	4.494865	0.887985	888.737000
39.266846	4.483364	0.888164	889.236000
39.289283	4.470660	0.888554	889.736000
39.312137	4.458782	0.889242	890.236000
39.334097	4.448587	0.889901	890.736000
39.356744	4.436679	0.890677	891.236000
39.379006	4.423801	0.891339	891.736000
39.402294	4.411517	0.891975	892.236000
39.424895	4.401205	0.892562	892.736000
39.447302	4.391069	0.892960	893.236000
39.470256	4.380383	0.893373	893.736000
39.491744	4.368736	0.893719	894.236000
39.513248	4.355845	0.894379	894.736000
39.535220	4.343767	0.894983	895.236000
39.559766	4.332003	0.895600	895.736000
39.584482	4.320057	0.896420	896.236000
39.606128	4.308763	0.896966	896.736000
39.628071	4.297691	0.897502	897.236000
39.650248	4.286170	0.898305	897.736000
39.675008	4.274628	0.898948	898.236000
39.699735	4.263681	0.899640	898.736000
39.721628	4.252137	0.900423	899.236000
39.745211	4.239615	0.901152	899.736000
39.767023	4.227171	0.901745	900.236000
39.790039	4.214795	0.902565	900.736000
39.814114	4.201050	0.903066	901.236000
39.836241	4.189095	0.903196	901.736000
39.859396	4.178221	0.903600	902.236000
39.881651	4.165437	0.904381	902.736000
39.904447	4.151982	0.905016	903.237000
39.930161	4.139087	0.905613	903.736000
39.953029	4.127045	0.906275	904.236000
39.974411	4.114803	0.906622	904.736000
39.996902	4.103676	0.907218	905.236000
40.019440	4.092779	0.907760	905.736000
40.032962	4.080469	0.908486	906.236000
40.034290	4.068882	0.909488	906.736000
40.034257	4.058244	0.910546	907.236000
40.034218	4.047295	0.911108	907.736000
40.033912	4.038595	0.911298	908.236000
40.033947	4.031810	0.911432	908.736000
40.033890	4.027194	0.911751	909.236000
40.033774	4.023020	0.912191	909.736000
40.033786	4.020204	0.912434	910.236000
40.033704	4.018138	0.912386	910.736000
40.033652	4.016402	0.912321	911.236000
40.033662	4.014935	0.912608	911.736000
40.033636	4.013989	0.912931	912.236000
40.033319	4.011555	0.912870	912.736000
40.033575	4.010675	0.912900	913.236000
40.033549	4.010567	0.913171	913.736000
40.033681	4.009416	0.913495	914.236000
40.033759	4.008106	0.913323	914.736000
40.033539	4.006482	0.912833	915.236000
40.033859	4.005565	0.912732	915.736000
40.033857	4.006302	0.912686	916.236000
40.033950	4.007559	0.912324	916.736000
40.033872	4.009124	0.912361	917.236000
40.034157	4.010282	0.912591	917.736000
40.034145	4.009622	0.912773	918.236000
40.033955	4.009144	0.912852	918.736000
40.034065	4.009125	0.912882	919.237000
40.033895	4.009202	0.912713	919.736000
40.033797	4.009029	0.912901	920.237000
40.033528	4.008675	0.913037	920.736000
40.033838	4.008620	0.912726	921.236000
40.033729	4.008288	0.912662	921.736000
40.033645	4.008285	0.912465	922.236000
40.033714	4.008289	0.912537	922.736000
40.033871	4.007764	0.912566	923.236000
40.034170	4.007919	0.912778	923.736000
40.034040	4.008466	0.912906	924.236000
40.034091	4.008434	0.912769	924.736000
40.033771	4.009648	0.912538	925.236000
40.033786	4.010659	0.912354	925.736000
40.033774	4.009267	0.912325	926.236000
40.033772	4.008681	0.912425	926.737000
40.033856	4.008131	0.912742	927.236000
40.033983	4.008854	0.912930	927.736000
40.033730	4.009157	0.912816	928.236000
40.033798	4.009818	0.912973	928.737000
40.036648	4.010054	0.913149	929.236000
40.018050	4.009344	0.913168	929.736000
39.997437	4.009581	0.913084	930.236000
39.976144	4.010729	0.913206	930.736000
39.955844	4.013336	0.913005	931.236000
39.935966	4.017283	0.912844	931.736000
39.914983	4.024274	0.912716	932.236000
39.893247	4.029588	0.912391	932.736000
39.872566	4.034843	0.912115	933.236000
39.852551	4.042456	0.911547	933.736000
39.831586	4.051302	0.910669	934.237000
39.812832	4.059853	0.910198	934.736000
39.792041	4.068600	0.909673	935.236000
39.772241	4.078374	0.909215	935.736000
39.752820	4.088112	0.908760	936.236000
39.733969	4.098944	0.908186	936.736000
39.713563	4.109797	0.907581	937.236000
39.696433	4.120605	0.907035	937.736000
39.675463	4.130845	0.906884	938.236000
39.655336	4.139295	0.906441	938.736000
39.634295	4.148685	0.905907	939.236000
39.617104	4.159727	0.905070	939.736000
39.598740	4.171223	0.904272	940.236000
39.582144	4.182192	0.903714	940.736000
39.561407	4.191698	0.903523	941.236000
39.540199	4.201020	0.902922	941.736000
39.517593	4.211708	0.902576	942.236000
39.498287	4.221847	0.902442	942.736000
39.480910	4.232511	0.901822	943.237000
39.458303	4.242466	0.901187	943.736000
39.438941	4.252954	0.900336	944.236000
39.420154	4.262464	0.899592	944.737000
39.401990	4.271365	0.899064	945.236000
39.380511	4.281218	0.898488	945.736000
39.359217	4.292187	0.897889	946.236000
39.335030	4.303176	0.897542	946.736000
39.313407	4.313423	0.897115	947.236000
39.290723	4.324774	0.896376	947.736000
39.270447	4.336402	0.895634	948.236000
39.248118	4.347143	0.895031	948.736000
39.224445	4.357983	0.894445	949.236000
39.205223	4.369137	0.894115	949.736000
39.183459	4.380521	0.893572	950.237000
39.162664	4.391595	0.892946	950.736000
39.147433	4.403651	0.892516	951.236000
39.130308	4.415510	0.892108	951.736000
39.107615	4.426631	0.891527	952.236000
39.087427	4.437723	0.891201	952.736000
39.065701	4.448104	0.890602	953.237000
39.044698	4.457955	0.890217	953.736000
39.020924	4.467553	0.889808	954.237000
38.997004	4.476849	0.889084	954.736000
38.977489	4.486731	0.888684	955.236000
38.955545	4.497778	0.888100	955.736000
38.936700	4.507706	0.887408	956.236000
38.914196	4.518377	0.886530	956.736000
38.894067	4.528700	0.885789	957.236000
38.874724	4.538285	0.885356	957.736000
38.854360	4.547749	0.885040	958.236000
38.832698	4.556708	0.884466	958.736000
38.813941	4.565601	0.883855	959.236000
38.794830	4.574986	0.883453	959.737000
38.774852	4.584693	0.882909	960.236000
38.751939	4.594887	0.882381	960.736000
38.735020	4.604374	0.881670	961.236000
38.714224	4.612903	0.881079	961.736000
38.693170	4.621572	0.880590	962.236000
38.672251	4.632222	0.879830	962.736000
38.649791	4.643637	0.879293	963.236000
38.629410	4.653781	0.878833	963.736000
38.607152	4.663510	0.878602	964.236000
38.581622	4.672775	0.877712	964.736000
38.558457	4.681611	0.877084	965.236000
38.538272	4.689792	0.876510	965.736000
38.514607	4.699987	0.875991	966.236000
38.491791	4.710595	0.875404	966.736000
38.468953	4.719795	0.874943	967.236000
38.445685	4.729311	0.874537	967.736000
38.424484	4.739694	0.874112	968.236000
38.399879	4.750333	0.873513	968.736000
38.376359	4.761459	0.872799	969.236000
38.357952	4.770420	0.871919	969.736000
38.338779	4.780404	0.871366	970.237000
38.316099	4.789703	0.870936	970.736000
38.291082	4.798562	0.870398	971.236000
38.273225	4.808303	0.869856	971.736000
38.249083	4.817590	0.869707	972.236000
38.230933	4.827495	0.869369	972.736000
38.209107	4.837917	0.868995	973.236000
38.189869	4.847712	0.868692	973.736000
38.170044	4.857152	0.868053	974.236000
38.150052	4.866865	0.867379	974.736000
38.130177	4.875248	0.866898	975.236000
38.110431	4.884600	0.866412	975.736000
38.087722	4.894125	0.865742	976.236000
38.063993	4.903529	0.865192	976.736000
38.040903	4.911808	0.864796	977.236000
38.020942	4.919067	0.864003	977.736000
38.004778	4.926888	0.863528	978.236000
37.984383	4.936100	0.862931	978.736000
37.960296	4.946320	0.862006	979.236000
37.940461	4.954779	0.861611	979.736000
37.922540	4.962419	0.861353	980.236000
37.902923	4.970260	0.860808	980.737000
37.877532	4.977430	0.860348	981.236000
37.858433	4.985844	0.859702	981.736000
37.837770	4.995089	0.859291	982.236000
37.816686	5.003718	0.858759	982.736000
37.792405	5.012239	0.858148	983.236000
37.766549	5.020183	0.857585	983.736000
37.754892	5.028772	0.856918	984.236000
37.736352	5.037597	0.856286	984.736000
37.715169	5.046858	0.855951	985.236000
37.695157	5.056166	0.855381	985.736000
37.671353	5.066277	0.854759	986.237000
37.652374	5.075798	0.854138	986.736000
37.634332	5.084433	0.853800	987.236000
37.614756	5.092512	0.853283	987.737000
37.594978	5.101113	0.852531	988.236000
37.574573	5.109537	0.851814	988.736000
37.554207	5.118228	0.851354	989.236000
37.533317	5.126068	0.850976	989.736000
37.511672	5.134451	0.850519	990.236000
37.490906	5.141727	0.849897	990.736000
37.471126	5.150262	0.849376	991.236000
37.448505	5.159136	0.849194	991.736000
37.425560	5.167303	0.849010	992.236000
37.405597	5.175864	0.849005	992.736000
37.385194	5.185146	0.848365	993.236000
37.362463	5.193936	0.847647	993.736000
37.342533	5.201590	0.847006	994.236000
37.325041	5.210439	0.846070	994.736000
37.304882	5.219570	0.845251	995.237000
37.283984	5.227678	0.844746	995.736000
37.260992	5.235605	0.844477	996.237000
37.247410	5.243829	0.844182	996.736000
37.227743	5.251012	0.843394	997.236000
37.206553	5.257940	0.842838	997.736000
37.190051	5.265661	0.842320	998.236000
37.167279	5.272487	0.841886	998.737000
37.144887	5.280887	0.841162	999.236000
37.126440	5.288861	0.840967	999.736000
37.104164	5.296887	0.841063	1000.236000
37.082752	5.304051	0.840934	1000.737000
37.064457	5.312157	0.840565	1001.236000
37.044726	5.320022	0.840042	1001.736000
37.021795	5.327529	0.839481	1002.236000
37.000382	5.334457	0.838689	1002.736000
36.980662	5.340151	0.837725	1003.236000
36.961331	5.346439	0.836864	1003.736000
36.939573	5.354584	0.836259	1004.236000
36.917952	5.362217	0.835883	1004.736000
36.898883	5.368762	0.835257	1005.236000
36.879381	5.375698	0.834729	1005.736000
36.857216	5.382936	0.834337	1006.236000
36.836820	5.390756	0.834134	1006.736000
36.819721	5.398621	0.833885	1007.236000
36.799465	5.406133	0.833415	1007.736000
36.777464	5.412942	0.832715	1008.236000
36.758737	5.420075	0.831957	1008.736000
36.739054	5.426466	0.831171	1009.236000
36.718954	5.431904	0.830835	1009.736000
36.703060	5.438259	0.830385	1010.236000
36.684353	5.445115	0.830099	1010.737000
36.659484	5.451859	0.829512	1011.237000
36.647221	5.457667	0.828804	1011.737000
36.628563	5.463898	0.828162	1012.237000
36.608596	5.469742	0.827927	1012.736000
36.588977	5.474542	0.827726	1013.236000
36.569208	5.478903	0.827689	1013.736000
36.549755	5.484088	0.827271	1014.236000
36.529330	5.489304	0.826802	1014.736000
36.509627	5.494805	0.826038	1015.237000
36.489268	5.499224	0.825253	1015.736000
36.467296	5.504723	0.824711	1016.236000
36.447034	5.510179	0.823900	1016.736000
36.428240	5.515375	0.823292	1017.236000
36.405181	5.520170	0.823268	1017.736000
36.389175	5.525419	0.822697	1018.236000
36.371800	5.530532	0.822232	1018.736000
36.346913	5.535163	0.821875	1019.236000
36.324421	5.539771	0.821480	1019.736000
36.311891	5.543935	0.820795	1020.236000
36.287568	5.545971	0.820354	1020.736000
36.266079	5.549383	0.819622	1021.236000
36.245871	5.554800	0.819362	1021.736000
36.224569	5.560195	0.818860	1022.236000
36.204987	5.565217	0.818189	1022.736000
36.187398	5.569913	0.817723	1023.237000
36.169378	5.573990	0.817299	1023.736000
36.150062	5.578411	0.816855	1024.237000
36.129228	5.583363	0.816627	1024.736000
36.112398	5.587504	0.816241	1025.236000
36.092199	5.589731	0.815701	1025.736000
36.074823	5.592714	0.815307	1026.236000
36.056607	5.595669	0.815032	1026.736000
36.037147	5.598718	0.814641	1027.236000
36.017903	5.602222	0.814040	1027.736000
35.994022	5.605507	0.813847	1028.236000
35.975020	5.608814	0.813627	1028.736000
35.953361	5.612382	0.813027	1029.236000
35.930361	5.615792	0.812270	1029.736000
35.910572	5.620399	0.811319	1030.236000
35.890004	5.624686	0.810726	1030.736000
35.873175	5.627633	0.810282	1031.236000
35.853368	5.631873	0.809947	1031.737000
35.834620	5.636108	0.809482	1032.236000
35.816821	5.639149	0.808681	1032.736000
35.792280	5.642701	0.808264	1033.237000
35.772310	5.645837	0.807889	1033.736000
35.754732	5.648640	0.807332	1034.237000
35.735395	5.652059	0.806839	1034.736000
35.711414	5.653719	0.806179	1035.236000
35.693087	5.655436	0.805876	1035.736000
35.673701	5.659075	0.805801	1036.236000
35.650372	5.662575	0.805534	1036.736000
35.630806	5.666191	0.804946	1037.236000
35.608401	5.669847	0.804071	1037.736000
35.587951	5.673254	0.803276	1038.236000
35.568569	5.675676	0.802788	1038.736000
35.547930	5.677646	0.802692	1039.236000
35.528180	5.680461	0.802304	1039.736000
35.509777	5.682524	0.801855	1040.236000
35.486931	5.683881	0.801398	1040.736000
35.465443	5.685378	0.800911	1041.236000
35.446579	5.687363	0.800222	1041.736000
35.422741	5.690978	0.799769	1042.236000
35.404644	5.694883	0.799349	1042.736000
35.381105	5.698314	0.798571	1043.236000
35.362592	5.701453	0.797980	1043.736000
35.342419	5.702121	0.797625	1044.236000
35.324283	5.701961	0.797298	1044.736000
35.301615	5.701581	0.796594	1045.236000
35.283345	5.702314	0.795974	1045.736000
35.261689	5.704356	0.795842	1046.237000
35.241464	5.705472	0.795642	1046.736000
35.221274	5.706082	0.795117	1047.236000
35.199748	5.708017	0.794654	1047.736000
35.180707	5.710906	0.793806	1048.236000
35.162372	5.711955	0.792813	1048.736000
35.139147	5.713272	0.792428	1049.236000
35.119922	5.714521	0.791805	1049.736000
35.098676	5.716343	0.791162	1050.236000
35.075807	5.718535	0.790827	1050.736000
35.054189	5.720424	0.790555	1051.236000
35.037942	5.720194	0.790191	1051.736000
35.016064	5.719669	0.789774	1052.236000
34.997531	5.720169	0.789054	1052.736000
34.978447	5.719807	0.788583	1053.236000
34.957675	5.720237	0.788162	1053.736000
34.935852	5.721915	0.787571	1054.237000
34.914692	5.723200	0.786853	1054.736000
34.893537	5.724353	0.786379	1055.236000
34.873906	5.725628	0.785912	1055.736000
34.849809	5.725987	0.785651	1056.236000
34.825924	5.726003	0.785340	1056.736000
34.807745	5.726459	0.785002	1057.236000
34.787469	5.726483	0.784433	1057.736000
34.767316	5.725303	0.783805	1058.236000
34.748676	5.724388	0.783385	1058.736000
34.729851	5.723600	0.782892	1059.236000
34.709361	5.723348	0.782405	1059.736000
34.690361	5.722590	0.781855	1060.236000
34.670835	5.721424	0.781355	1060.737000
34.649793	5.721688	0.780924	1061.236000
34.624664	5.721490	0.780642	1061.736000
34.608237	5.721140	0.780485	1062.236000
34.589389	5.720896	0.779782	1062.736000
34.567584	5.720134	0.779072	1063.236000
34.542981	5.719556	0.778597	1063.736000
34.525384	5.719009	0.777932	1064.237000
34.501179	5.718199	0.777688	1064.736000
34.483040	5.717520	0.777177	1065.236000
34.463165	5.718141	0.776752	1065.736000
34.442017	5.717587	0.776309	1066.237000
34.425405	5.715824	0.776054	1066.736000
34.405035	5.714604	0.775685	1067.236000
34.382532	5.714442	0.774706	1067.736000
34.359561	5.713118	0.774162	1068.236000
34.338811	5.711935	0.773785	1068.736000
34.317772	5.711051	0.773317	1069.236000
34.297596	5.710063	0.772677	1069.736000
34.276879	5.708985	0.772351	1070.236000
34.256561	5.708698	0.771841	1070.736000
34.232747	5.707208	0.771241	1071.236000
34.217535	5.706040	0.771151	1071.736000
34.197026	5.704853	0.770636	1072.236000
34.174036	5.703334	0.770120	1072.737000
34.154318	5.702314	0.769365	1073.236000
34.132954	5.700758	0.768896	1073.736000
34.110292	5.699209	0.768649	1074.236000
34.089606	5.698179	0.768368	1074.736000
34.071535	5.697230	0.768028	1075.236000
34.050289	5.696127	0.767160	1075.736000
34.025795	5.694262	0.766465	1076.236000
34.010423	5.692317	0.766167	1076.736000
33.989172	5.690427	0.765465	1077.237000
33.965149	5.688014	0.764796	1077.736000
33.944534	5.685396	0.764109	1078.236000
33.923967	5.683648	0.763393	1078.736000
33.901849	5.682235	0.762972	1079.236000
33.883472	5.681262	0.762541	1079.736000
33.866093	5.679048	0.762015	1080.236000
33.848104	5.676728	0.761957	1080.736000
33.829493	5.674648	0.761843	1081.236000
33.808017	5.672433	0.761430	1081.736000
33.790253	5.670338	0.761017	1082.236000
33.771982	5.668773	0.760372	1082.736000
33.752243	5.667510	0.760046	1083.236000
33.729517	5.665512	0.759547	1083.736000
33.708476	5.662949	0.759227	1084.236000
33.690704	5.660274	0.758825	1084.736000
33.670638	5.658289	0.758566	1085.236000
33.646256	5.655350	0.758307	1085.736000
33.628847	5.652477	0.757908	1086.236000
33.608062	5.649562	0.757360	1086.736000
33.588977	5.646711	0.756888	1087.237000
33.570535	5.644268	0.756218	1087.736000
33.550827	5.641972	0.755753	1088.237000
33.529852	5.639644	0.755498	1088.736000
33.508995	5.637365	0.755539	1089.236000
33.490444	5.634518	0.755190	1089.736000
33.469309	5.631372	0.754537	1090.236000
33.448183	5.628103	0.753534	1090.736000
33.428051	5.625663	0.753092	1091.236000
33.407776	5.622709	0.752881	1091.736000
33.386203	5.620229	0.752369	1092.236000
33.365451	5.616720	0.751506	1092.736000
33.339699	5.613026	0.751415	1093.236000
33.318502	5.609704	0.750958	1093.736000
33.302540	5.606647	0.750361	1094.236000
33.284065	5.603804	0.749620	1094.736000
33.265227	5.600946	0.748902	1095.236000
33.245688	5.598353	0.748430	1095.736000
33.224359	5.595399	0.747870	1096.236000
33.200665	5.592177	0.747274	1096.736000
33.184288	5.589848	0.746605	1097.237000
33.165614	5.587178	0.746137	1097.736000
33.146469	5.584185	0.745609	1098.236000
33.126998	5.581056	0.745515	1098.737000
33.107321	5.578015	0.745285	1099.236000
33.085609	5.574529	0.744443	1099.736000
33.067427	5.571548	0.743836	1100.236000
33.047613	5.568663	0.743396	1100.736000
33.026105	5.565083	0.742811	1101.236000
33.005048	5.561267	0.742274	1101.736000
32.986081	5.557993	0.741914	1102.236000
32.965842	5.554196	0.741840	1102.736000
32.946227	5.549843	0.741667	1103.236000
32.926116	5.545951	0.741569	1103.736000
32.905681	5.542361	0.740953	1104.236000
32.882107	5.539580	0.739988	1104.736000
32.862621	5.537330	0.739826	1105.236000
32.842694	5.534050	0.739569	1105.736000
32.823457	5.530035	0.739055	1106.236000
32.804414	5.525616	0.738698	1106.736000
32.780518	5.522149	0.738277	1107.236000
32.761227	5.518575	0.737644	1107.736000
32.742059	5.514956	0.736992	1108.236000
32.719598	5.510875	0.736375	1108.736000
32.702903	5.506950	0.735613	1109.236000
32.680296	5.503669	0.735223	1109.736000
32.665677	5.499757	0.734938	1110.236000
32.640861	5.495832	0.734450	1110.736000
32.620853	5.492071	0.734191	1111.236000
32.597195	5.487745	0.733819	1111.736000
32.586395	5.482573	0.733402	1112.236000
32.563712	5.479240	0.732810	1112.736000
32.547299	5.475825	0.732048	1113.236000
32.524552	5.472162	0.731445	1113.736000
32.505785	5.468575	0.731035	1114.236000
32.488149	5.464523	0.730833	1114.736000
32.466548	5.460195	0.730543	1115.236000
32.444407	5.455380	0.730238	1115.736000
32.421417	5.451177	0.729784	1116.236000
32.403046	5.447283	0.729165	1116.736000
32.385610	5.443112	0.728474	1117.237000
32.366546	5.438637	0.728151	1117.736000
32.346210	5.433758	0.727944	1118.236000
32.324959	5.429341	0.727589	1118.736000
32.302569	5.424937	0.727169	1119.236000
32.284592	5.420749	0.726498	1119.736000
32.267888	5.416793	0.725898	1120.236000
32.243353	5.412817	0.725607	1120.736000
32.220392	5.409148	0.725357	1121.236000
32.206256	5.404597	0.725060	1121.736000
32.187463	5.400229	0.724814	1122.236000
32.167401	5.396349	0.724485	1122.736000
32.147327	5.391931	0.724073	1123.236000
32.130019	5.387110	0.723346	1123.736000
32.111605	5.383048	0.722877	1124.236000
32.088082	5.379296	0.722683	1124.736000
32.069328	5.374912	0.722476	1125.236000
32.051598	5.370285	0.721777	1125.736000
32.030554	5.365999	0.721081	1126.236000
32.007010	5.361596	0.720406	1126.736000
31.987578	5.356982	0.719854	1127.237000
31.968337	5.352437	0.719548	1127.736000
31.947769	5.347681	0.719204	1128.236000
31.923531	5.342520	0.718862	1128.736000
31.903695	5.337662	0.718452	1129.236000
31.880854	5.332622	0.718235	1129.736000
31.857431	5.327912	0.717912	1130.236000
31.839343	5.323921	0.717309	1130.736000
31.825659	5.320019	0.716563	1131.236000
31.796323	5.315587	0.716089	1131.736000
31.775970	5.310965	0.715773	1132.236000
31.760532	5.305605	0.715655	1132.736000
31.739796	5.299696	0.715415	1133.236000
31.717962	5.294810	0.714941	1133.736000
31.695221	5.290681	0.714479	1134.236000
31.679592	5.286637	0.713860	1134.736000
31.656338	5.282121	0.713189	1135.236000
31.632389	5.277489	0.712722	1135.736000
31.610477	5.273685	0.712320	1136.236000
31.587646	5.267990	0.712062	1136.736000
31.567849	5.262794	0.711680	1137.237000
31.548479	5.257456	0.711182	1137.736000
31.524466	5.252307	0.710519	1138.236000
31.502468	5.247521	0.710130	1138.736000
31.483016	5.242926	0.709557	1139.236000
31.462904	5.238622	0.709020	1139.736000
31.442224	5.234045	0.708408	1140.236000
31.420169	5.229456	0.707982	1140.736000
31.403958	5.224927	0.707838	1141.236000
31.378754	5.220939	0.707729	1141.736000
31.356940	5.216360	0.707348	1142.236000
31.336548	5.211992	0.706769	1142.736000
31.316937	5.207436	0.706207	1143.236000
31.298270	5.202585	0.705555	1143.736000
31.279832	5.198680	0.704897	1144.236000
31.262622	5.194418	0.704528	1144.736000
31.249527	5.190250	0.704460	1145.236000
31.225937	5.186959	0.704309	1145.736000
31.202789	5.182844	0.704239	1146.236000
31.183578	5.179110	0.703607	1146.736000
31.161096	5.175647	0.702663	1147.236000
31.138252	5.171615	0.702061	1147.736000
31.120476	5.167392	0.701611	1148.236000
31.102220	5.163338	0.701543	1148.736000
31.083669	5.159140	0.700825	1149.236000
31.064047	5.156047	0.700297	1149.736000
31.042163	5.152880	0.699980	1150.236000
31.025299	5.149487	0.699662	1150.736000
31.007748	5.145215	0.699292	1151.236000
30.986942	5.141424	0.699172	1151.736000
30.967303	5.138464	0.698732	1152.236000
30.945261	5.135368	0.698426	1152.736000
30.926107	5.132743	0.698130	1153.236000
30.904618	5.129002	0.697560	1153.736000
30.883209	5.125350	0.696969	1154.236000
30.858927	5.122360	0.696365	1154.736000
30.837772	5.119712	0.695928	1155.236000
30.818795	5.116408	0.695516	1155.736000
30.796411	5.112674	0.695290	1156.236000
30.777692	5.109434	0.695114	1156.736000
30.753699	5.106498	0.694653	1157.236000
30.732060	5.103223	0.694287	1157.736000
30.711827	5.099552	0.693970	1158.236000
30.685703	5.095511	0.693242	1158.736000
30.665742	5.091855	0.692662	1159.237000
30.646036	5.089086	0.692354	1159.736000
30.623800	5.086254	0.691833	1160.236000
30.601981	5.083566	0.691328	1160.736000
30.582947	5.080890	0.690897	1161.236000
30.559454	5.078573	0.690373	1161.736000
30.535254	5.075612	0.689827	1162.236000
30.515384	5.072269	0.689617	1162.736000
30.494093	5.069292	0.689445	1163.236000
30.473049	5.066786	0.689095	1163.736000
30.449786	5.063821	0.688412	1164.236000
30.429126	5.061148	0.687641	1164.736000
30.407782	5.059078	0.686752	1165.237000
30.379958	5.056399	0.686556	1165.736000
30.361761	5.054336	0.686412	1166.236000
30.343573	5.051905	0.685996	1166.736000
30.322760	5.049850	0.685520	1167.236000
30.302464	5.048143	0.684956	1167.736000
30.281693	5.045688	0.684718	1168.236000
30.263271	5.044157	0.684613	1168.736000
30.241091	5.041553	0.684281	1169.236000
30.218045	5.039503	0.683913	1169.736000
30.197970	5.037671	0.683111	1170.236000
30.177746	5.035583	0.682178	1170.737000
30.158241	5.033280	0.681553	1171.236000
30.140262	5.030599	0.681434	1171.736000
30.116284	5.028720	0.681338	1172.236000
30.096378	5.027024	0.680914	1172.737000
30.074039	5.025181	0.680450	1173.236000
30.052187	5.023236	0.679916	1173.736000
30.032126	5.021115	0.679137	1174.236000
30.012934	5.019491	0.678547	1174.736000
29.988563	5.017793	0.677802	1175.236000
29.965427	5.016233	0.677570	1175.736000
29.944751	5.014949	0.677233	1176.236000
29.923541	5.013638	0.677024	1176.736000
29.902344	5.011878	0.676783	1177.236000
29.872976	5.009898	0.676397	1177.736000
29.851987	5.008360	0.676035	1178.236000
29.837207	5.007023	0.675442	1178.736000
29.811122	5.005756	0.674889	1179.236000
29.791358	5.004091	0.674342	1179.736000
29.776638	5.002029	0.673628	1180.236000
29.751898	5.000521	0.673197	1180.736000
29.728125	4.998881	0.672833	1181.236000
29.706009	4.996743	0.672409	1181.737000
29.684332	4.994947	0.671902	1182.236000
29.667817	4.992805	0.670957	1182.737000
29.644659	4.991800	0.670314	1183.236000
29.620858	4.990519	0.669945	1183.736000
29.598871	4.988531	0.669525	1184.236000
29.584429	4.986692	0.669297	1184.736000
29.560200	4.985104	0.668945	1185.237000
29.539967	4.983815	0.668606	1185.736000
29.520299	4.982395	0.668108	1186.237000
29.501964	4.981342	0.667777	1186.736000
29.480383	4.980043	0.667325	1187.236000
29.457647	4.978252	0.666726	1187.736000
29.437966	4.976144	0.666123	1188.236000
29.412979	4.974601	0.665655	1188.736000
29.397174	4.972868	0.665216	1189.236000
29.375248	4.970854	0.664730	1189.736000
29.350549	4.969843	0.664341	1190.236000
29.336935	4.968919	0.664056	1190.736000
29.314359	4.967846	0.664138	1191.236000
29.289365	4.966556	0.663588	1191.736000
29.273035	4.965157	0.662781	1192.236000
29.251738	4.964567	0.662510	1192.737000
29.233119	4.962903	0.661977	1193.236000
29.211243	4.961289	0.661419	1193.736000
29.188087	4.959554	0.660945	1194.236000
29.168378	4.958397	0.660491	1194.736000
29.141550	4.957078	0.659794	1195.236000
29.117531	4.955152	0.659337	1195.736000
29.103082	4.953353	0.658776	1196.236000
29.080835	4.951494	0.658244	1196.736000
29.062753	4.949588	0.657829	1197.236000
29.042342	4.947596	0.657277	1197.736000
29.022183	4.946056	0.656632	1198.236000
29.000509	4.944701	0.656010	1198.736000
28.976742	4.943256	0.655620	1199.236000
28.958723	4.941673	0.655118	1199.736000
28.933667	4.940091	0.654644	1200.236000
28.913223	4.938587	0.654030	1200.736000
28.887830	4.937124	0.653369	1201.236000
28.865701	4.935564	0.652828	1201.736000
28.853808	4.933736	0.652430	1202.236000
28.832740	4.932632	0.652357	1202.736000
28.804115	4.931330	0.651833	1203.236000
28.786198	4.929028	0.651508	1203.736000
28.764930	4.927004	0.651202	1204.236000
28.744169	4.925223	0.650924	1204.736000
28.725264	4.923262	0.650300	1205.236000
28.704290	4.920599	0.649957	1205.737000
28.682044	4.918090	0.649541	1206.236000
28.660019	4.916478	0.648768	1206.736000
28.640195	4.914805	0.647879	1207.236000
28.622556	4.912393	0.647114	1207.736000
28.603278	4.910406	0.646889	1208.236000
28.579920	4.908762	0.646683	1208.736000
28.560362	4.907303	0.646501	1209.236000
28.539431	4.905261	0.646096	1209.736000
28.518923	4.902639	0.646070	1210.236000
28.501929	4.900098	0.645448	1210.737000
28.479038	4.897974	0.644734	1211.236000
28.457761	4.895596	0.644083	1211.736000
28.435329	4.893312	0.643499	1212.236000
28.410463	4.891001	0.643026	1212.736000
28.387977	4.889660	0.642674	1213.236000
28.368299	4.888457	0.642098	1213.736000
28.353778	4.886252	0.641442	1214.236000
28.334237	4.883782	0.640978	1214.736000
28.309332	4.881950	0.640522	1215.236000
28.290301	4.879553	0.639757	1215.736000
28.269913	4.876726	0.639419	1216.236000
28.255789	4.873950	0.639054	1216.736000
28.233395	4.871597	0.638430	1217.236000
28.210969	4.869965	0.637959	1217.736000
28.190435	4.867424	0.637592	1218.237000
28.172435	4.864507	0.637105	1218.736000
28.153832	4.862169	0.636420	1219.236000
28.133571	4.859789	0.636053	1219.736000
28.108700	4.857467	0.635543	1220.236000
28.085994	4.854609	0.634699	1220.736000
28.068652	4.851918	0.634213	1221.236000
28.050790	4.848987	0.633578	1221.736000
28.025845	4.846619	0.632852	1222.236000
28.003476	4.844055	0.632360	1222.736000
27.983364	4.841858	0.632406	1223.236000
27.964830	4.839769	0.632286	1223.737000
27.939771	4.837434	0.632141	1224.236000
27.923563	4.834311	0.631722	1224.737000
27.898998	4.830720	0.631681	1225.236000
27.877756	4.827408	0.631158	1225.736000
27.857425	4.823814	0.630469	1226.236000
27.838031	4.820907	0.629842	1226.736000
27.819156	4.817971	0.629557	1227.236000
27.792533	4.814789	0.629366	1227.736000
27.770850	4.811250	0.628848	1228.236000
27.753287	4.807857	0.628113	1228.736000
27.731732	4.804836	0.627318	1229.236000
27.713215	4.801394	0.626492	1229.736000
27.691918	4.797946	0.625882	1230.236000
27.668802	4.794696	0.625449	1230.736000
27.647467	4.791217	0.625028	1231.236000
27.634579	4.787425	0.624776	1231.736000
27.612913	4.783447	0.624630	1232.236000
27.590092	4.779732	0.623942	1232.736000
27.566883	4.775761	0.623421	1233.236000
27.545831	4.771800	0.622821	1233.736000
27.524960	4.768812	0.622155	1234.236000
27.504741	4.765614	0.621535	1234.736000
27.486858	4.762063	0.620954	1235.236000
27.469079	4.758350	0.620792	1235.736000
27.443898	4.754510	0.620509	1236.236000
27.424178	4.750402	0.620023	1236.737000
27.399257	4.747013	0.619563	1237.236000
27.379705	4.743247	0.619201	1237.736000
27.358204	4.739756	0.618841	1238.236000
27.339182	4.736168	0.618332	1238.736000
27.318821	4.731694	0.617843	1239.236000
27.303878	4.727640	0.616952	1239.736000
27.283111	4.723058	0.616000	1240.236000
27.259151	4.718322	0.615374	1240.736000
27.240066	4.713683	0.615071	1241.236000
27.217780	4.709162	0.614781	1241.736000
27.192222	4.704394	0.614464	1242.236000
27.176885	4.699674	0.614047	1242.736000
27.159591	4.694644	0.613697	1243.236000
27.132542	4.689467	0.613091	1243.736000
27.114110	4.685801	0.612416	1244.236000
27.093442	4.681825	0.611795	1244.737000
27.077392	4.677223	0.611207	1245.236000
27.049560	4.672468	0.610667	1245.736000
27.030245	4.667771	0.610583	1246.236000
27.006282	4.662457	0.610497	1246.736000
26.989039	4.657231	0.610085	1247.236000
26.970599	4.652115	0.609608	1247.736000
26.954783	4.646926	0.608905	1248.236000
26.927335	4.642043	0.608122	1248.736000
26.908583	4.637502	0.607621	1249.237000
26.890788	4.632293	0.607279	1249.736000
26.871393	4.626314	0.606888	1250.237000
26.840866	4.620411	0.606558	1250.736000
26.827690	4.614633	0.606094	1251.237000
26.805228	4.609221	0.605569	1251.736000
26.788180	4.603962	0.604995	1252.236000
26.765913	4.597998	0.604761	1252.736000
26.750573	4.592417	0.604345	1253.236000
26.725801	4.587106	0.603930	1253.737000
26.707079	4.581660	0.603547	1254.236000
26.681899	4.575866	0.603152	1254.736000
26.663217	4.570186	0.602781	1255.236000
26.642531	4.564501	0.602347	1255.736000
26.619829	4.558437	0.601857	1256.236000
26.594630	4.551483	0.601210	1256.736000
26.580079	4.543960	0.600351	1257.236000
26.561351	4.537311	0.599544	1257.736000
26.535135	4.530964	0.599154	1258.236000
26.518932	4.525111	0.598598	1258.736000
26.501492	4.518621	0.597763	1259.236000
26.483686	4.511991	0.597182	1259.736000
26.464531	4.504581	0.596828	1260.237000
26.443653	4.497969	0.596684	1260.736000
26.419238	4.490745	0.596703	1261.236000
26.399902	4.483349	0.596424	1261.737000
26.378936	4.476251	0.596103	1262.236000
26.352465	4.469363	0.595389	1262.736000
26.326699	4.462175	0.594273	1263.236000
26.306448	4.454401	0.593596	1263.736000
26.284720	4.446369	0.593186	1264.236000
26.269607	4.437730	0.592690	1264.736000
26.252273	4.430033	0.591910	1265.236000
26.234552	4.422026	0.591474	1265.737000
26.216364	4.414377	0.591220	1266.236000
26.196695	4.407266	0.590897	1266.736000
26.175762	4.399820	0.590448	1267.236000
26.151582	4.392156	0.590178	1267.736000
26.130516	4.384186	0.589916	1268.236000
26.112312	4.375333	0.589374	1268.736000
26.089456	4.366952	0.588700	1269.236000
26.073674	4.358785	0.588494	1269.736000
26.053429	4.350085	0.587953	1270.236000
26.033292	4.341916	0.587768	1270.736000
26.012428	4.333996	0.587391	1271.236000
25.988678	4.325357	0.586960	1271.736000
25.967282	4.316571	0.586647	1272.236000
25.946203	4.306849	0.586314	1272.736000
25.926042	4.297034	0.585832	1273.236000
25.907160	4.287741	0.585244	1273.737000
25.888613	4.278133	0.584458	1274.236000
25.868003	4.267897	0.583716	1274.737000
25.840606	4.257401	0.582959	1275.236000
25.821398	4.246613	0.582368	1275.736000
25.801961	4.236347	0.581907	1276.236000
25.782530	4.226647	0.581683	1276.736000
25.758662	4.216765	0.581053	1277.236000
25.738230	4.206124	0.580837	1277.737000
25.717010	4.194892	0.580631	1278.236000
25.695019	4.183099	0.580380	1278.736000
25.670170	4.172233	0.579737	1279.236000
25.653853	4.161248	0.579008	1279.736000
25.629268	4.149531	0.578627	1280.236000
25.611419	4.138197	0.578052	1280.736000
25.592215	4.126537	0.577410	1281.236000
25.571676	4.115084	0.576863	1281.736000
25.548750	4.102855	0.576187	1282.237000
25.528409	4.090165	0.575816	1282.736000
25.506561	4.078308	0.575495	1283.236000
25.482358	4.066397	0.575060	1283.736000
25.463262	4.054215	0.574697	1284.236000
25.441820	4.041109	0.574449	1284.736000
25.421956	4.027412	0.573957	1285.236000
25.399948	4.014584	0.573594	1285.736000
25.375715	4.000812	0.573010	1286.236000
25.354421	3.986696	0.572170	1286.737000
25.331671	3.972096	0.571456	1287.236000
25.313179	3.956483	0.571005	1287.736000
25.292646	3.942124	0.570601	1288.237000
25.269235	3.928015	0.570517	1288.736000
25.249736	3.912817	0.570357	1289.236000
25.229022	3.897626	0.569911	1289.736000
25.208954	3.881964	0.569350	1290.236000
25.187943	3.866425	0.568925	1290.736000
25.170999	3.851402	0.568332	1291.236000
25.147667	3.835623	0.567605	1291.736000
25.130454	3.820329	0.566871	1292.236000
25.107077	3.804834	0.566324	1292.736000
25.087823	3.789104	0.566078	1293.236000
25.066453	3.772465	0.565801	1293.736000
25.044269	3.755742	0.565049	1294.236000
25.024493	3.738570	0.564690	1294.736000
25.006388	3.721209	0.564425	1295.236000
24.981756	3.704014	0.564130	1295.736000
24.958398	3.685736	0.563940	1296.236000
24.937328	3.667215	0.563483	1296.736000
24.918363	3.648568	0.562929	1297.236000
24.897728	3.629472	0.562355	1297.736000
24.876128	3.610489	0.561911	1298.236000
24.853256	3.590978	0.561608	1298.736000
24.832169	3.571015	0.560826	1299.236000
24.815295	3.550706	0.560427	1299.736000
24.794841	3.530413	0.559975	1300.236000
24.776414	3.509609	0.559476	1300.736000
24.759850	3.489205	0.559216	1301.236000
24.737946	3.467796	0.559066	1301.736000
24.720042	3.446618	0.558714	1302.237000
24.696746	3.425748	0.558197	1302.736000
24.676840	3.403942	0.557699	1303.236000
24.656328	3.381682	0.557153	1303.736000
24.636633	3.359188	0.556595	1304.236000
24.616634	3.336045	0.556187	1304.737000
24.587584	3.312676	0.555440	1305.236000
24.572195	3.288403	0.555010	1305.737000
24.555966	3.263580	0.555005	1306.236000
24.533566	3.237856	0.554853	1306.736000
24.513601	3.212179	0.554369	1307.236000
24.486347	3.186437	0.553911	1307.736000
24.469046	3.159905	0.553077	1308.236000
24.455576	3.132227	0.552525	1308.736000
24.432882	3.104475	0.552028	1309.236000
24.412650	3.076743	0.551817	1309.736000
24.388743	3.047904	0.551518	1310.237000
24.363393	3.018516	0.551254	1310.736000
24.346902	2.988461	0.550928	1311.236000
24.325742	2.957451	0.550427	1311.736000
24.306574	2.926135	0.549844	1312.236000
24.288268	2.893889	0.549143	1312.736000
24.269735	2.861655	0.548936	1313.237000
24.249946	2.829399	0.548959	1313.736000
24.228936	2.796242	0.548489	1314.236000
24.207850	2.762456	0.547731	1314.736000
24.186422	2.728257	0.547184	1315.236000
24.165698	2.693346	0.546473	1315.736000
24.145630	2.657091	0.546068	1316.236000
24.123896	2.620263	0.545622	1316.737000
24.094194	2.582337	0.545217	1317.236000
24.075842	2.542006	0.544901	1317.736000
24.057260	2.500072	0.544664	1318.236000
24.035690	2.458360	0.544507	1318.736000
24.009248	2.415463	0.544242	1319.236000
23.990831	2.371182	0.543692	1319.736000
23.969812	2.326342	0.543492	1320.236000
23.948682	2.280931	0.543215	1320.736000
23.933339	2.234246	0.542679	1321.237000
23.914753	2.187423	0.542562	1321.736000
23.891300	2.140583	0.542226	1322.236000
23.872542	2.093072	0.541574	1322.736000
23.850241	2.046042	0.541024	1323.236000
23.829876	1.997721	0.540547	1323.736000
23.810891	1.949076	0.540094	1324.236000
23.787645	1.899973	0.540037	1324.736000
23.768955	1.849288	0.539787	1325.236000
23.747032	1.798105	0.539251	1325.737000
23.724528	1.747294	0.539059	1326.236000
23.704990	1.695668	0.538778	1326.737000
23.683869	1.644151	0.538509	1327.236000
23.664842	1.593016	0.538051	1327.737000
23.642320	1.541075	0.537729	1328.236000
23.617797	1.489682	0.537625	1328.737000
23.597681	1.437626	0.537542	1329.236000
23.582192	1.384842	0.537456	1329.736000
23.558169	1.334275	0.537088	1330.236000
23.536921	1.284790	0.536661	1330.736000
23.514454	1.236101	0.536113	1331.237000
23.497920	1.188347	0.535852	1331.736000
23.475947	1.141661	0.535858	1332.236000
23.456186	1.096931	0.536156	1332.736000
23.436763	1.054097	0.536264	1333.237000
23.416440	1.012487	0.535760	1333.736000
23.398035	0.972717	0.535498	1334.236000
23.378758	0.934773	0.535492	1334.736000
23.354766	0.898364	0.535242	1335.236000
23.337085	0.863954	0.535247	1335.736000
23.313872	0.830650	0.535536	1336.236000
23.294798	0.799390	0.535344	1336.737000
23.281162	0.769513	0.534906	1337.236000
23.259009	0.741035	0.534726	1337.736000
23.241116	0.714470	0.534762	1338.236000
23.219662	0.689972	0.534781	1338.736000
23.197590	0.666459	0.534799	1339.236000
23.179428	0.644082	0.534807	1339.736000
23.161033	0.622727	0.534858	1340.236000
23.139379	0.602240	0.534860	1340.736000
23.120224	0.583173	0.534678	1341.236000
23.096595	0.566324	0.534573	1341.736000
23.077332	0.549247	0.534862	1342.236000
23.055658	0.533031	0.534903	1342.736000
23.036687	0.519076	0.534792	1343.237000
23.013577	0.505222	0.534643	1343.736000
22.996564	0.492474	0.534670	1344.236000
22.975646	0.481499	0.534768	1344.736000
22.949974	0.471295	0.534824	1345.236000
22.934423	0.462869	0.534651	1345.736000
22.916706	0.455830	0.534583	1346.236000
22.890781	0.451034	0.534702	1346.736000
22.872155	0.447886	0.534956	1347.236000
22.852975	0.445552	0.535228	1347.736000
22.835736	0.445826	0.535222	1348.236000
22.818393	0.448432	0.535214	1348.736000
22.795696	0.451596	0.535042	1349.236000
22.773547	0.456571	0.535060	1349.736000
22.757022	0.463822	0.535201	1350.237000
22.731084	0.472907	0.535008	1350.736000
22.712877	0.484213	0.534906	1351.236000
22.692364	0.497770	0.534769	1351.736000
22.676993	0.513798	0.534940	1352.236000
22.658868	0.532204	0.534746	1352.736000
22.630005	0.552352	0.534825	1353.237000
22.613464	0.573578	0.535059	1353.736000
22.597372	0.597186	0.534972	1354.236000
22.575138	0.622117	0.534754	1354.736000
22.547393	0.649131	0.534838	1355.236000
22.527653	0.679291	0.535209	1355.737000
22.508517	0.710911	0.535581	1356.236000
22.493406	0.743559	0.535217	1356.736000
22.474843	0.777368	0.534674	1357.236000
22.449023	0.811564	0.534661	1357.736000
22.431387	0.846408	0.534396	1358.236000
22.414400	0.882531	0.534261	1358.737000
22.385098	0.918877	0.534138	1359.236000
22.364391	0.955396	0.533713	1359.736000
22.347794	0.992687	0.533414	1360.236000
22.329486	1.030981	0.533347	1360.736000
22.305575	1.069250	0.533057	1361.237000
22.291355	1.106625	0.532925	1361.736000
22.267551	1.143041	0.533120	1362.237000
22.243161	1.178397	0.532412	1362.736000
22.222946	1.213858	0.531928	1363.236000
22.213135	1.249155	0.531590	1363.736000
22.189719	1.283728	0.531267	1364.236000
22.167378	1.317430	0.530909	1364.737000
22.144960	1.350359	0.530413	1365.236000
22.123040	1.382700	0.529950	1365.736000
22.107523	1.414614	0.529442	1366.236000
22.088352	1.445391	0.528925	1366.736000
22.073163	1.475099	0.528140	1367.236000
22.050281	1.503094	0.527434	1367.736000
22.040945	1.530539	0.526648	1368.236000
22.020853	1.557219	0.526070	1368.736000
21.996960	1.582316	0.525557	1369.236000
21.979351	1.606399	0.525229	1369.737000
21.958803	1.630317	0.524817	1370.236000
21.935950	1.653741	0.524259	1370.736000
21.917411	1.677470	0.523700	1371.236000
21.896814	1.701247	0.523037	1371.736000
21.873363	1.725151	0.522295	1372.237000
21.855379	1.748909	0.521736	1372.736000
21.833218	1.771564	0.521153	1373.236000
21.817920	1.793543	0.520262	1373.736000
21.800811	1.814342	0.519633	1374.237000
21.780487	1.834716	0.519163	1374.737000
21.760069	1.855468	0.519023	1375.236000
21.743805	1.875545	0.518356	1375.737000
21.723621	1.894205	0.517590	1376.236000
21.704031	1.912483	0.516899	1376.736000
21.687224	1.930509	0.516017	1377.236000
21.660834	1.948279	0.515309	1377.736000
21.637784	1.965966	0.514677	1378.236000
21.620493	1.983524	0.514071	1378.736000
21.603219	2.001769	0.513221	1379.236000
21.579844	2.019429	0.512384	1379.737000
21.558531	2.036172	0.511796	1380.236000
21.537895	2.051980	0.511048	1380.736000
21.522844	2.067866	0.510282	1381.236000
21.504216	2.082894	0.509595	1381.736000
21.481217	2.098042	0.508993	1382.237000
21.463193	2.112795	0.508264	1382.736000
21.446591	2.127387	0.507931	1383.236000
21.428745	2.141004	0.507316	1383.736000
21.413892	2.153938	0.506572	1384.237000
21.392004	2.166718	0.505750	1384.736000
21.366262	2.180046	0.505096	1385.236000
21.343866	2.193843	0.504415	1385.736000
21.328326	2.207660	0.503721	1386.236000
21.309294	2.221476	0.503335	1386.736000
21.289710	2.234719	0.502650	1387.236000
21.270185	2.247009	0.501843	1387.737000
21.250946	2.259495	0.500889	1388.236000
21.225415	2.271719	0.500432	1388.736000
21.206689	2.284422	0.500197	1389.236000
21.185561	2.297507	0.499593	1389.737000
21.166296	2.310094	0.498905	1390.236000
21.146009	2.322287	0.498029	1390.736000
21.128179	2.335224	0.497346	1391.236000
21.107579	2.348862	0.497213	1391.736000
21.085294	2.362476	0.496754	1392.236000
21.070456	2.375192	0.495794	1392.736000
21.048154	2.387382	0.494999	1393.236000
21.025034	2.400081	0.494468	1393.736000
21.000656	2.413467	0.493788	1394.236000
20.983768	2.427203	0.493139	1394.736000
20.968601	2.440728	0.492843	1395.237000
20.954154	2.453926	0.492488	1395.736000
20.931692	2.466205	0.491932	1396.236000
20.912334	2.479300	0.491288	1396.736000
20.892639	2.493309	0.490560	1397.236000
20.874008	2.507164	0.489944	1397.736000
20.855246	2.520427	0.489305	1398.236000
20.835861	2.533117	0.488538	1398.737000
20.815455	2.546622	0.487829	1399.236000
20.795317	2.560549	0.487556	1399.737000
20.775060	2.573380	0.487163	1400.236000
20.753789	2.585792	0.486614	1400.736000
20.731399	2.598799	0.485876	1401.236000
20.710790	2.613077	0.485227	1401.736000
20.690195	2.627884	0.484472	1402.236000
20.670755	2.641844	0.483958	1402.736000
20.652371	2.655811	0.483347	1403.236000
20.629520	2.670349	0.482794	1403.736000
20.608020	2.684479	0.482543	1404.236000
20.591795	2.698270	0.481562	1404.736000
20.573214	2.710805	0.480690	1405.237000
20.552501	2.723705	0.480113	1405.736000
20.533644	2.736649	0.479400	1406.236000
20.513113	2.749528	0.478848	1406.736000
20.490604	2.762012	0.478403	1407.236000
20.468842	2.773199	0.478081	1407.736000
20.446201	2.785455	0.477645	1408.236000
20.426088	2.798356	0.477332	1408.737000
20.408917	2.810181	0.476774	1409.236000
20.389696	2.821125	0.475890	1409.736000
20.367029	2.832251	0.475387	1410.236000
20.348748	2.843501	0.474826	1410.736000
20.325338	2.853908	0.474050	1411.236000
20.307961	2.863307	0.473518	1411.736000
20.283015	2.872965	0.473044	1412.237000
20.265690	2.883170	0.472313	1412.736000
20.248001	2.893018	0.471677	1413.236000
20.225516	2.902258	0.471140	1413.736000
20.203293	2.911417	0.470670	1414.236000
20.183941	2.920468	0.470128	1414.736000
20.165556	2.928731	0.469704	1415.237000
20.143551	2.937046	0.469381	1415.736000
20.119799	2.944763	0.469215	1416.236000
20.099767	2.952904	0.468460	1416.736000
20.080212	2.961016	0.467726	1417.236000
20.060822	2.968597	0.467112	1417.736000
20.039050	2.976044	0.466573	1418.236000
20.019647	2.982652	0.466251	1418.736000
19.996192	2.989006	0.465568	1419.236000
19.970224	2.994743	0.464678	1419.736000
19.953000	3.000198	0.463767	1420.236000
19.933914	3.006352	0.462910	1420.736000
19.910049	3.013386	0.462347	1421.236000
19.887957	3.019786	0.462139	1421.736000
19.873711	3.024872	0.462134	1422.237000
19.853458	3.029954	0.461725	1422.736000
19.829208	3.034985	0.460871	1423.236000
19.805453	3.039808	0.460190	1423.736000
19.789181	3.043270	0.459673	1424.237000
19.767891	3.046876	0.459380	1424.736000
19.748670	3.051036	0.458834	1425.237000
19.728450	3.054846	0.458210	1425.737000
19.709568	3.058694	0.458021	1426.236000
19.683265	3.062605	0.457623	1426.736000
19.662198	3.065140	0.457037	1427.236000
19.638025	3.067100	0.456405	1427.736000
19.618854	3.069875	0.455713	1428.236000
19.594455	3.073238	0.455257	1428.736000
19.578050	3.076429	0.454575	1429.236000
19.556679	3.078448	0.454378	1429.736000
19.531530	3.079580	0.453773	1430.236000
19.509362	3.081101	0.453081	1430.736000
19.488885	3.083559	0.452509	1431.236000
19.472687	3.086083	0.452000	1431.736000
19.452054	3.087836	0.451495	1432.237000
19.432447	3.088557	0.450778	1432.736000
19.406708	3.089017	0.450357	1433.236000
19.390503	3.089831	0.449977	1433.736000
19.370607	3.090754	0.449637	1434.236000
19.344332	3.091135	0.448959	1434.736000
19.317721	3.091492	0.448431	1435.236000
19.298093	3.091851	0.447618	1435.736000
19.278700	3.091763	0.446996	1436.236000
19.259799	3.091680	0.446317	1436.736000
19.236951	3.092550	0.445616	1437.236000
19.213196	3.093282	0.444927	1437.736000
19.190583	3.092885	0.444153	1438.236000
19.167819	3.091240	0.443552	1438.736000
19.146243	3.089702	0.443016	1439.236000
19.121574	3.089374	0.442392	1439.736000
19.099920	3.088848	0.442202	1440.236000
19.076575	3.087985	0.441703	1440.736000
19.052307	3.086492	0.441334	1441.236000
19.028082	3.084174	0.440956	1441.736000
19.005985	3.082226	0.440438	1442.237000
18.986557	3.080960	0.439883	1442.736000
18.963452	3.079902	0.439165	1443.237000
18.942141	3.078151	0.438390	1443.736000
18.918626	3.075669	0.437586	1444.237000
18.898994	3.072946	0.437121	1444.736000
18.880095	3.070873	0.436868	1445.236000
18.858362	3.068954	0.436322	1445.737000
18.836313	3.066825	0.435510	1446.236000
18.812997	3.064149	0.435085	1446.736000
18.795306	3.060624	0.434650	1447.236000
18.772839	3.057866	0.433953	1447.736000
18.750645	3.055695	0.433680	1448.236000
18.730546	3.053736	0.433337	1448.736000
18.708778	3.051659	0.432763	1449.236000
18.688611	3.048281	0.432289	1449.736000
18.668614	3.044180	0.432064	1450.236000
18.646152	3.040600	0.431648	1450.737000
18.625550	3.037615	0.430765	1451.236000
18.604206	3.034957	0.429665	1451.736000
18.582849	3.031435	0.429140	1452.236000
18.561649	3.026927	0.429086	1452.736000
18.541922	3.023184	0.428821	1453.236000
18.521234	3.020025	0.428328	1453.736000
18.502704	3.016750	0.427637	1454.236000
18.482264	3.013121	0.427112	1454.736000
18.456580	3.008702	0.426809	1455.236000
18.437357	3.004284	0.426352	1455.736000
18.414261	2.999983	0.425860	1456.236000
18.392841	2.996300	0.425001	1456.736000
18.372995	2.992867	0.424301	1457.236000
18.347009	2.988847	0.423965	1457.736000
18.326365	2.984023	0.423784	1458.236000
18.303227	2.978841	0.423603	1458.736000
18.286383	2.974287	0.423136	1459.236000
18.265865	2.969933	0.422553	1459.736000
18.242373	2.965605	0.422065	1460.236000
18.219579	2.961110	0.421440	1460.736000
18.198775	2.956974	0.420993	1461.236000
18.176148	2.951342	0.420161	1461.737000
18.152901	2.945691	0.419606	1462.236000
18.131592	2.939827	0.419065	1462.736000
18.108661	2.933699	0.418919	1463.236000
18.088691	2.927908	0.418600	1463.736000
18.072583	2.922402	0.418082	1464.236000
18.052598	2.917201	0.417233	1464.736000
18.027721	2.912746	0.416336	1465.236000
18.006756	2.908424	0.415916	1465.736000
17.989207	2.903649	0.415631	1466.237000
17.969860	2.898139	0.415131	1466.736000
17.945157	2.892129	0.414725	1467.236000
17.920966	2.885605	0.414369	1467.736000
17.904065	2.879109	0.413820	1468.236000
17.886325	2.872263	0.412971	1468.736000
17.866701	2.866001	0.412642	1469.236000
17.840021	2.860503	0.412711	1469.736000
17.817366	2.855522	0.412204	1470.236000
17.797873	2.850021	0.411723	1470.736000
17.774862	2.843542	0.411131	1471.236000
17.754277	2.837044	0.410301	1471.736000
17.735318	2.829663	0.409938	1472.236000
17.717624	2.821704	0.409879	1472.736000
17.700275	2.814022	0.409563	1473.236000
17.673169	2.807264	0.409032	1473.736000
17.649511	2.800396	0.408283	1474.236000
17.628841	2.792993	0.407744	1474.736000
17.612316	2.785761	0.407369	1475.236000
17.588250	2.778665	0.406913	1475.736000
17.570854	2.771521	0.406092	1476.237000
17.543687	2.764792	0.405864	1476.736000
17.525048	2.757744	0.405894	1477.237000
17.506976	2.750505	0.405542	1477.737000
17.488681	2.742011	0.404711	1478.236000
17.466628	2.733705	0.404039	1478.736000
17.444239	2.725406	0.403504	1479.236000
17.424324	2.716537	0.403328	1479.736000
17.403518	2.707594	0.403061	1480.236000
17.391142	2.698669	0.402567	1480.736000
17.363750	2.689693	0.402060	1481.236000
17.345650	2.680556	0.401254	1481.737000
17.324695	2.671455	0.400409	1482.237000
17.307081	2.662779	0.399618	1482.736000
17.285372	2.654074	0.399419	1483.237000
17.266227	2.645941	0.399225	1483.736000
17.244334	2.637155	0.399046	1484.236000
17.230527	2.627739	0.398611	1484.736000
17.212490	2.618296	0.398310	1485.236000
17.185876	2.609062	0.398166	1485.736000
17.163001	2.599837	0.397695	1486.237000
17.144631	2.590203	0.397107	1486.736000
17.129349	2.579683	0.396590	1487.236000
17.101688	2.568950	0.396128	1487.736000
17.076910	2.557387	0.395629	1488.236000
17.062994	2.545842	0.395364	1488.736000
17.040512	2.533977	0.394872	1489.236000
17.017220	2.522120	0.394374	1489.736000
16.996664	2.509926	0.393836	1490.236000
16.976564	2.497877	0.393483	1490.737000
16.961544	2.485626	0.392809	1491.236000
16.939062	2.473688	0.392092	1491.736000
16.915695	2.461649	0.391513	1492.236000
16.898428	2.449271	0.390893	1492.736000
16.882446	2.436459	0.390274	1493.236000
16.857669	2.424386	0.389788	1493.736000
16.833929	2.412191	0.389327	1494.236000
16.814712	2.398989	0.388652	1494.736000
16.791564	2.385023	0.388262	1495.236000
16.768198	2.371479	0.388207	1495.736000
16.749117	2.357548	0.387745	1496.237000
16.735144	2.343287	0.387294	1496.736000
16.712026	2.328633	0.386627	1497.236000
16.693249	2.313584	0.386065	1497.737000
16.680801	2.297812	0.385904	1498.236000
16.655798	2.282388	0.385783	1498.736000
16.630916	2.267010	0.385483	1499.236000
16.616245	2.251528	0.385229	1499.736000
16.592621	2.235852	0.385138	1500.236000
16.571803	2.219850	0.384808	1500.736000
16.549618	2.203073	0.384273	1501.236000
16.533795	2.185983	0.383468	1501.737000
16.504821	2.168693	0.382733	1502.236000
16.486038	2.151149	0.381847	1502.736000
16.470569	2.132474	0.381236	1503.236000
16.445529	2.113324	0.380700	1503.736000
16.425893	2.094073	0.380375	1504.236000
16.404029	2.074818	0.380154	1504.736000
16.382016	2.055597	0.379712	1505.236000
16.364602	2.035817	0.379434	1505.736000
16.337327	2.015774	0.378896	1506.236000
16.318868	1.995074	0.378518	1506.736000
16.300250	1.973433	0.378220	1507.237000
16.283944	1.950700	0.377565	1507.736000
16.262112	1.928581	0.376841	1508.236000
16.236251	1.906389	0.376241	1508.736000
16.220285	1.883777	0.376045	1509.236000
16.199710	1.861222	0.375717	1509.737000
16.180518	1.838288	0.375421	1510.236000
16.152695	1.814860	0.374919	1510.736000
16.139240	1.790832	0.374164	1511.236000
16.116345	1.765636	0.373752	1511.737000
16.097394	1.739905	0.373411	1512.236000
16.077814	1.714066	0.372955	1512.736000
16.057969	1.687526	0.372405	1513.237000
16.041064	1.660800	0.372024	1513.736000
16.016854	1.634870	0.371768	1514.236000
15.994125	1.608675	0.371313	1514.736000
15.975080	1.581220	0.370923	1515.236000
15.949599	1.553869	0.370555	1515.736000
15.935862	1.525539	0.370330	1516.236000
15.909474	1.496051	0.369923	1516.736000
15.894304	1.465611	0.369404	1517.236000
15.875049	1.435011	0.369236	1517.736000
15.848414	1.404415	0.368807	1518.236000
15.831928	1.373389	0.368471	1518.736000
15.803887	1.342641	0.367692	1519.236000
15.787228	1.311469	0.366998	1519.736000
15.767488	1.279205	0.366625	1520.236000
15.745353	1.245839	0.366174	1520.736000
15.723983	1.211946	0.365831	1521.236000
15.701437	1.177753	0.365770	1521.737000
15.682554	1.143278	0.365727	1522.236000
15.660263	1.109072	0.365511	1522.736000
15.638004	1.074950	0.365243	1523.236000
15.617247	1.041244	0.364726	1523.736000
15.596714	1.007909	0.364538	1524.236000
15.580113	0.975325	0.364227	1524.736000
15.559952	0.943086	0.363992	1525.237000
15.541944	0.911159	0.363391	1525.736000
15.522985	0.879990	0.363206	1526.237000
15.498683	0.849866	0.363156	1526.736000
15.480324	0.821200	0.362962	1527.237000
15.461349	0.793974	0.362788	1527.736000
15.446382	0.768037	0.362577	1528.237000
15.425551	0.744783	0.362124	1528.736000
15.399439	0.723468	0.361576	1529.236000
15.378223	0.703386	0.361539	1529.736000
15.353006	0.683414	0.361285	1530.236000
15.338799	0.664790	0.360758	1530.736000
15.322812	0.648499	0.360636	1531.236000
15.302653	0.634305	0.360755	1531.736000
15.283457	0.622249	0.360977	1532.236000
15.261502	0.612869	0.360949	1532.736000
15.237634	0.605895	0.360756	1533.236000
15.221872	0.601102	0.360311	1533.736000
15.202056	0.598809	0.360096	1534.236000
15.175631	0.598687	0.359747	1534.736000
15.158788	0.599642	0.359621	1535.236000
15.137584	0.602300	0.359424	1535.736000
15.112627	0.608483	0.359351	1536.237000
15.091099	0.617710	0.359291	1536.736000
15.076923	0.629205	0.358905	1537.236000
15.053740	0.641693	0.358513	1537.736000
15.031085	0.654887	0.357968	1538.237000
15.007433	0.670388	0.357573	1538.736000
14.991371	0.687158	0.357665	1539.236000
14.972466	0.705676	0.357579	1539.736000
14.947767	0.725311	0.357438	1540.236000
14.926096	0.744991	0.357478	1540.736000
14.905907	0.764892	0.357561	1541.236000
14.882838	0.784528	0.357454	1541.736000
14.863843	0.805291	0.356885	1542.236000
14.838611	0.827464	0.356512	1542.737000
14.820766	0.849570	0.356072	1543.237000
14.800612	0.870996	0.355597	1543.736000
14.779547	0.891199	0.355369	1544.236000
14.756423	0.910946	0.354796	1544.736000
14.740931	0.930725	0.354406	1545.236000
14.721261	0.951330	0.353780	1545.736000
14.698697	0.971117	0.353168	1546.236000
14.676906	0.989648	0.352416	1546.736000
14.657300	1.007194	0.351820	1547.236000
14.630662	1.025371	0.351263	1547.736000
14.612810	1.044294	0.350692	1548.236000
14.589359	1.063573	0.350151	1548.737000
14.565866	1.081094	0.349257	1549.236000
14.543178	1.097629	0.348949	1549.736000
14.520267	1.114538	0.348867	1550.236000
14.497878	1.132671	0.348430	1550.736000
14.478475	1.149982	0.347890	1551.236000
14.456561	1.165905	0.347202	1551.736000
14.440857	1.181771	0.346519	1552.236000
14.419836	1.197795	0.346061	1552.737000
14.400152	1.212743	0.345212	1553.236000
14.379268	1.226394	0.344501	1553.737000
14.355652	1.240572	0.344070	1554.236000
14.332990	1.254720	0.343373	1554.736000
14.309686	1.268270	0.342658	1555.236000
14.288434	1.281231	0.342051	1555.736000
14.263493	1.294394	0.341383	1556.236000
14.238490	1.308243	0.340426	1556.736000
14.217146	1.321900	0.339615	1557.237000
14.199593	1.334923	0.339067	1557.736000
14.175686	1.348166	0.338377	1558.236000
14.153974	1.362186	0.337541	1558.737000
14.135087	1.375161	0.336664	1559.236000
14.113645	1.387647	0.335948	1559.736000
14.093421	1.400667	0.335170	1560.236000
14.069406	1.413725	0.334469	1560.737000
14.049006	1.426410	0.334112	1561.236000
14.029147	1.437984	0.334192	1561.736000
14.007094	1.449811	0.333967	1562.236000
13.985465	1.462066	0.333160	1562.736000
13.965265	1.473905	0.332272	1563.236000
13.946436	1.485656	0.331556	1563.737000
13.926934	1.497411	0.331039	1564.236000
13.903497	1.509217	0.330391	1564.736000
13.883201	1.520041	0.329481	1565.237000
13.865331	1.530646	0.329140	1565.736000
13.843641	1.541957	0.328661	1566.236000
13.821167	1.553878	0.328236	1566.736000
13.802751	1.564327	0.327613	1567.237000
13.785050	1.574008	0.327217	1567.736000
13.765007	1.584217	0.326773	1568.236000
13.744236	1.594137	0.326030	1568.736000
13.723944	1.603526	0.325381	1569.236000
13.704075	1.612199	0.324865	1569.737000
13.681689	1.620849	0.324092	1570.236000
13.659787	1.629507	0.323463	1570.737000
13.639577	1.637284	0.323445	1571.236000
13.619538	1.645789	0.323128	1571.736000
13.599513	1.654135	0.322424	1572.236000
13.578813	1.661476	0.321515	1572.737000
13.559731	1.668441	0.320890	1573.236000
13.538936	1.675977	0.320516	1573.737000
13.517327	1.682705	0.320218	1574.237000
13.496243	1.689083	0.319502	1574.736000
13.474486	1.695668	0.319139	1575.237000
13.454462	1.702419	0.318670	1575.736000
13.434094	1.708183	0.318371	1576.236000
13.414001	1.712218	0.317764	1576.736000
13.393665	1.716252	0.317144	1577.236000
13.374770	1.721028	0.316725	1577.736000
13.353559	1.725785	0.316430	1578.236000
13.332119	1.728710	0.316057	1578.736000
13.312072	1.731204	0.315297	1579.236000
13.291192	1.734652	0.314475	1579.736000
13.269835	1.737853	0.313678	1580.236000
13.247967	1.740742	0.312932	1580.736000
13.226040	1.742820	0.312071	1581.236000
13.206610	1.743309	0.311299	1581.736000
13.185169	1.743700	0.310859	1582.236000
13.166144	1.744874	0.310369	1582.737000
13.147343	1.746070	0.309921	1583.236000
13.127290	1.746953	0.309490	1583.737000
13.106276	1.748190	0.309293	1584.236000
13.080791	1.748314	0.308831	1584.736000
13.057287	1.747404	0.307951	1585.236000
13.037807	1.745502	0.307267	1585.736000
13.016304	1.742909	0.306716	1586.236000
12.993379	1.740623	0.306471	1586.736000
12.969928	1.737954	0.306144	1587.236000
12.949720	1.735508	0.305814	1587.736000
12.927380	1.733161	0.305208	1588.237000
12.908856	1.730490	0.304588	1588.736000
12.887029	1.727137	0.303980	1589.237000
12.864751	1.723050	0.303861	1589.737000
12.845651	1.718538	0.303440	1590.236000
12.825892	1.713038	0.303005	1590.736000
12.802717	1.706732	0.302219	1591.236000
12.781182	1.700612	0.301812	1591.736000
12.760942	1.694845	0.301314	1592.236000
12.738439	1.688892	0.300608	1592.737000
12.720345	1.683182	0.300346	1593.236000
12.700445	1.676930	0.299784	1593.737000
12.677414	1.669644	0.299113	1594.238000
12.656850	1.661941	0.298486	1594.736000
12.636086	1.653808	0.297977	1595.236000
12.615588	1.644646	0.297663	1595.736000
12.595055	1.635008	0.297278	1596.236000
12.575936	1.625787	0.296663	1596.736000
12.556078	1.616587	0.296124	1597.236000
12.537275	1.607726	0.295542	1597.736000
12.520326	1.598155	0.295200	1598.236000
12.500776	1.588524	0.294924	1598.736000
12.478449	1.577899	0.294217	1599.237000
12.454214	1.566583	0.293782	1599.736000
12.434623	1.554643	0.293482	1600.236000
12.416116	1.542320	0.293002	1600.736000
12.397797	1.530285	0.292467	1601.236000
12.376686	1.517896	0.292308	1601.736000
12.356537	1.505699	0.292148	1602.236000
12.338430	1.492999	0.291917	1602.737000
12.318863	1.479999	0.291555	1603.236000
12.297526	1.465916	0.290858	1603.736000
12.278560	1.451043	0.289970	1604.236000
12.260336	1.435948	0.289240	1604.736000
12.240509	1.420604	0.288804	1605.236000
12.221966	1.405260	0.288257	1605.736000
12.202925	1.389838	0.287866	1606.237000
12.186891	1.374431	0.287433	1606.736000
12.165590	1.358713	0.287001	1607.236000
12.143461	1.343178	0.286743	1607.736000
12.121339	1.326729	0.286447	1608.237000
12.104009	1.308861	0.285891	1608.736000
12.085153	1.290361	0.285326	1609.236000
12.070007	1.271532	0.285019	1609.736000
12.048747	1.253185	0.284668	1610.236000
12.031080	1.234648	0.284190	1610.736000
12.009734	1.215318	0.283611	1611.236000
11.994139	1.196900	0.282948	1611.736000
11.971159	1.178831	0.282568	1612.236000
11.955095	1.160277	0.282485	1612.736000
11.937304	1.141132	0.282613	1613.236000
11.919523	1.121314	0.282492	1613.736000
11.898049	1.101274	0.282048	1614.236000
11.880255	1.080228	0.281699	1614.736000
11.860051	1.059484	0.280897	1615.236000
11.835845	1.038502	0.280215	1615.736000
11.813446	1.017637	0.279884	1616.237000
11.793343	0.996612	0.279530	1616.736000
11.776758	0.975469	0.279183	1617.236000
11.762544	0.954015	0.278858	1617.736000
11.742753	0.933021	0.278578	1618.237000
11.718181	0.912067	0.278087	1618.736000
11.697009	0.891036	0.277737	1619.236000
11.679346	0.869836	0.277249	1619.736000
11.659271	0.848961	0.276957	1620.236000
11.641816	0.829189	0.276970	1620.736000
11.623060	0.810443	0.276707	1621.236000
11.606054	0.793628	0.276487	1621.736000
11.582548	0.776993	0.276079	1622.236000
11.571103	0.761329	0.275478	1622.737000
11.546670	0.746234	0.274986	1623.236000
11.525640	0.731537	0.274604	1623.737000
11.507511	0.717190	0.274421	1624.236000
11.489353	0.704014	0.273977	1624.737000
11.465832	0.692515	0.273615	1625.237000
11.450345	0.682408	0.273243	1625.736000
11.432789	0.674281	0.272739	1626.236000
11.409177	0.667937	0.272537	1626.736000
11.394453	0.663234	0.272291	1627.236000
11.370266	0.660364	0.272208	1627.736000
11.351591	0.658784	0.272152	1628.236000
11.331812	0.657351	0.272060	1628.736000
11.312732	0.656997	0.272049	1629.236000
11.295169	0.657770	0.271735	1629.736000
11.276590	0.659792	0.271206	1630.236000
11.256963	0.663658	0.270723	1630.736000
11.235147	0.669060	0.270207	1631.236000
11.214451	0.675341	0.270081	1631.736000
11.191838	0.681823	0.269696	1632.236000
11.170523	0.688595	0.269164	1632.737000
11.153664	0.696548	0.268828	1633.236000
11.136544	0.706120	0.268699	1633.736000
11.119439	0.716407	0.268111	1634.236000
11.104914	0.726634	0.267289	1634.737000
11.077094	0.736708	0.266682	1635.237000
11.047733	0.746481	0.266436	1635.737000
11.033678	0.757060	0.266531	1636.236000
11.014933	0.768708	0.266298	1636.736000
10.996669	0.780681	0.265720	1637.236000
10.976867	0.791704	0.265166	1637.736000
10.955969	0.801864	0.264719	1638.237000
10.928997	0.812615	0.264328	1638.736000
10.910025	0.824111	0.263857	1639.236000
10.891626	0.836517	0.263529	1639.736000
10.865607	0.848475	0.263036	1640.237000
10.849651	0.859033	0.262553	1640.737000
10.834430	0.869626	0.262238	1641.236000
10.819966	0.880150	0.261521	1641.736000
10.800024	0.891523	0.260609	1642.236000
10.778598	0.902227	0.260094	1642.736000
10.755293	0.912332	0.259741	1643.236000
10.731963	0.922221	0.259243	1643.737000
10.713153	0.931548	0.258601	1644.236000
10.696085	0.940539	0.258160	1644.736000
10.680493	0.949554	0.257980	1645.236000
10.655099	0.959302	0.257726	1645.736000
10.633742	0.969284	0.257171	1646.236000
10.620954	0.978833	0.256613	1646.736000
10.601575	0.987462	0.255727	1647.236000
10.575731	0.995044	0.255085	1647.736000
10.558445	1.002557	0.254578	1648.236000
10.540127	1.010122	0.254177	1648.736000
10.518549	1.018023	0.253215	1649.236000
10.500946	1.025908	0.252641	1649.736000
10.485239	1.033507	0.252320	1650.236000
10.463183	1.039925	0.251658	1650.736000
10.436853	1.045550	0.250923	1651.236000
10.418436	1.051558	0.250373	1651.736000
10.401976	1.058471	0.249971	1652.236000
10.378855	1.066046	0.249499	1652.736000
10.360449	1.072446	0.249013	1653.236000
10.342435	1.077561	0.248508	1653.736000
10.317621	1.081816	0.248277	1654.236000
10.297598	1.086143	0.248180	1654.736000
10.277808	1.090648	0.247664	1655.236000
10.259848	1.095287	0.246955	1655.736000
10.240522	1.099310	0.246219	1656.236000
10.215975	1.102584	0.245694	1656.736000
10.195810	1.104577	0.245141	1657.236000
10.176558	1.106587	0.244407	1657.736000
10.155957	1.109311	0.243894	1658.236000
10.135602	1.111722	0.243368	1658.736000
10.123430	1.112224	0.242901	1659.237000
10.097933	1.111997	0.242307	1659.736000
10.079804	1.111673	0.241864	1660.237000
10.062922	1.111283	0.241449	1660.736000
10.041239	1.110508	0.240864	1661.237000
10.019616	1.108607	0.240383	1661.737000
9.999239	1.106177	0.240115	1662.236000
9.978120	1.103963	0.239333	1662.736000
9.956218	1.101753	0.238676	1663.236000
9.942776	1.098247	0.238064	1663.736000
9.925781	1.093535	0.237617	1664.236000
9.906992	1.088401	0.237382	1664.736000
9.882878	1.083725	0.237034	1665.236000
9.857733	1.079209	0.236593	1665.736000
9.839757	1.073383	0.236425	1666.236000
9.818082	1.065733	0.235952	1666.736000
9.797786	1.057399	0.235578	1667.236000
9.779253	1.049563	0.235037	1667.736000
9.756647	1.042088	0.234493	1668.236000
9.736818	1.032791	0.233938	1668.736000
9.716763	1.022431	0.233559	1669.237000
9.691634	1.012213	0.233387	1669.736000
9.674392	1.002278	0.232652	1670.237000
9.650861	0.991564	0.231938	1670.736000
9.632638	0.980225	0.231541	1671.237000
9.613196	0.967249	0.231143	1671.737000
9.591430	0.954287	0.230948	1672.236000
9.566163	0.941526	0.230487	1672.736000
9.549567	0.927739	0.230085	1673.236000
9.527466	0.913444	0.229835	1673.737000
9.507351	0.899552	0.229136	1674.236000
9.490756	0.885413	0.228543	1674.736000
9.468905	0.870302	0.228216	1675.236000
9.452230	0.855399	0.227659	1675.736000
9.426087	0.841594	0.227155	1676.236000
9.407066	0.827386	0.226792	1676.737000
9.383935	0.812232	0.226336	1677.236000
9.362271	0.797935	0.225885	1677.736000
9.341248	0.784112	0.225467	1678.236000
9.321292	0.769056	0.225193	1678.736000
9.300692	0.754147	0.224614	1679.237000
9.282102	0.740981	0.223957	1679.736000
9.261972	0.728112	0.223694	1680.237000
9.239602	0.715859	0.223200	1680.736000
9.220413	0.704532	0.222668	1681.237000
9.200509	0.693419	0.222133	1681.736000
9.180045	0.683339	0.222375	1682.236000
9.159570	0.675103	0.222238	1682.736000
9.141089	0.666705	0.221848	1683.236000
9.121890	0.659436	0.221655	1683.736000
9.101407	0.654440	0.220961	1684.236000
9.081166	0.650400	0.220277	1684.737000
9.061958	0.646564	0.219848	1685.236000
9.043813	0.644027	0.219331	1685.736000
9.024909	0.642975	0.218923	1686.236000
9.004748	0.642068	0.218856	1686.737000
8.983795	0.642528	0.218419	1687.236000
8.963877	0.644147	0.218020	1687.736000
8.943903	0.646088	0.217656	1688.236000
8.926114	0.647994	0.217168	1688.736000
8.906954	0.650977	0.216752	1689.237000
8.886330	0.655681	0.216266	1689.736000
8.868420	0.660533	0.215672	1690.237000
8.849736	0.665793	0.215263	1690.736000
8.829080	0.672225	0.214721	1691.236000
8.809684	0.678708	0.214109	1691.736000
8.788116	0.684631	0.213600	1692.236000
8.768502	0.691205	0.213125	1692.736000
8.747532	0.697926	0.212817	1693.236000
8.728391	0.704079	0.212785	1693.736000
8.707712	0.710858	0.212487	1694.236000
8.686807	0.718452	0.212016	1694.736000
8.665831	0.725739	0.211821	1695.236000
8.644830	0.732351	0.211124	1695.737000
8.626086	0.739838	0.210414	1696.236000
8.606194	0.747372	0.209834	1696.737000
8.586791	0.754154	0.209531	1697.236000
8.567763	0.760166	0.209179	1697.736000
8.548437	0.766030	0.208700	1698.237000
8.527770	0.772178	0.207874	1698.736000
8.511490	0.777523	0.206888	1699.236000
8.490851	0.782398	0.206578	1699.736000
8.471198	0.787960	0.206393	1700.236000
8.450287	0.793122	0.206160	1700.736000
8.428589	0.797103	0.205735	1701.236000
8.408657	0.801110	0.205060	1701.736000
8.388421	0.805835	0.204900	1702.236000
8.369424	0.809754	0.204263	1702.736000
8.350165	0.812591	0.203454	1703.236000
8.334030	0.815486	0.202793	1703.736000
8.311700	0.818578	0.202106	1704.236000
8.290804	0.819611	0.201598	1704.737000
8.271314	0.819946	0.201262	1705.236000
8.254253	0.821309	0.200806	1705.737000
8.234542	0.822130	0.200358	1706.236000
8.214933	0.821633	0.199996	1706.736000
8.193735	0.821143	0.199182	1707.236000
8.171395	0.820818	0.198621	1707.736000
8.148785	0.819001	0.198344	1708.236000
8.130914	0.815673	0.197928	1708.736000
8.109735	0.812263	0.197374	1709.236000
8.090903	0.809198	0.196998	1709.736000
8.072570	0.805261	0.196575	1710.236000
8.053473	0.800424	0.196075	1710.736000
8.032778	0.795380	0.195468	1711.236000
8.013937	0.790419	0.194958	1711.736000
7.993490	0.784596	0.194477	1712.236000
7.970369	0.777591	0.194280	1712.737000
7.952603	0.770484	0.193867	1713.236000
7.931964	0.763846	0.193567	1713.736000
7.914645	0.756789	0.193171	1714.236000
7.895966	0.748477	0.192561	1714.737000
7.876581	0.739885	0.192334	1715.236000
7.856189	0.732007	0.191709	1715.737000
7.840713	0.723769	0.191018	1716.236000
7.820881	0.714636	0.190348	1716.736000
7.799528	0.706076	0.189800	1717.236000
7.777302	0.698379	0.189500	1717.736000
7.757825	0.690284	0.189308	1718.236000
7.736945	0.681358	0.189045	1718.736000
7.716687	0.673084	0.188773	1719.236000
7.697673	0.666016	0.188539	1719.736000
7.681652	0.658158	0.187943	1720.237000
7.661586	0.650360	0.187492	1720.736000
7.640163	0.644171	0.187311	1721.236000
7.619781	0.638295	0.187008	1721.736000
7.600006	0.632541	0.186747	1722.237000
7.580502	0.628176	0.185885	1722.737000
7.560589	0.625074	0.185053	1723.236000
7.541452	0.621828	0.184852	1723.736000
7.521664	0.619404	0.184521	1724.236000
7.501403	0.618611	0.184361	1724.737000
7.481343	0.617395	0.184097	1725.236000
7.461636	0.616712	0.183767	1725.737000
7.442595	0.617409	0.183180	1726.236000
7.421317	0.618554	0.182449	1726.736000
7.402668	0.620062	0.182287	1727.236000
7.381312	0.622846	0.181944	1727.737000
7.360806	0.625998	0.181289	1728.236000
7.342178	0.628877	0.180830	1728.736000
7.323090	0.632759	0.180631	1729.236000
7.304057	0.637462	0.180374	1729.736000
7.285212	0.640998	0.179872	1730.237000
7.266511	0.645055	0.179381	1730.736000
7.248978	0.649720	0.178771	1731.237000
7.230674	0.653472	0.178198	1731.736000
7.211617	0.656835	0.177876	1732.237000
7.191550	0.660972	0.177487	1732.736000
7.171893	0.664837	0.177187	1733.236000
7.153168	0.667580	0.176762	1733.736000
7.132510	0.670975	0.176181	1734.236000
7.113072	0.675217	0.175539	1734.737000
7.090905	0.678013	0.174971	1735.236000
7.070969	0.679358	0.175013	1735.736000
7.051653	0.682145	0.174473	1736.236000
7.032936	0.684913	0.173752	1736.736000
7.012689	0.686153	0.172951	1737.236000
6.994714	0.686545	0.172496	1737.736000
6.975000	0.687245	0.172098	1738.236000
6.953485	0.688434	0.171735	1738.736000
6.931934	0.688323	0.171278	1739.236000
6.914419	0.687277	0.170764	1739.736000
6.895339	0.686608	0.169767	1740.237000
6.873400	0.685386	0.169294	1740.736000
6.860151	0.683384	0.169141	1741.237000
6.842449	0.680651	0.168881	1741.736000
6.820195	0.678501	0.168561	1742.237000
6.797291	0.675831	0.168370	1742.736000
6.777405	0.671319	0.167823	1743.236000
6.763603	0.666871	0.167466	1743.737000
6.740780	0.663570	0.166702	1744.236000
6.723281	0.659307	0.166113	1744.737000
6.705603	0.653872	0.165575	1745.236000
6.683286	0.648985	0.165417	1745.737000
6.665605	0.644648	0.165324	1746.236000
6.642671	0.638844	0.164931	1746.736000
6.628409	0.633241	0.164254	1747.236000
6.612661	0.629124	0.163696	1747.737000
6.592234	0.625048	0.163458	1748.236000
6.573428	0.620705	0.163083	1748.736000
6.557352	0.615977	0.162710	1749.236000
6.539740	0.611525	0.162273	1749.736000
6.522581	0.609074	0.161684	1750.237000
6.501814	0.606474	0.160999	1750.736000
6.474531	0.603259	0.160172	1751.236000
6.454468	0.600363	0.159602	1751.736000
6.437227	0.598667	0.159422	1752.237000
6.422388	0.598009	0.159252	1752.736000
6.402485	0.598065	0.159000	1753.237000
6.381385	0.597950	0.158583	1753.736000
6.359277	0.597892	0.158296	1754.236000
6.339948	0.597986	0.157865	1754.736000
6.320835	0.599157	0.157320	1755.236000
6.308114	0.601031	0.156778	1755.736000
6.288955	0.603342	0.155997	1756.236000
6.270774	0.605035	0.155606	1756.736000
6.251581	0.606669	0.155678	1757.236000
6.231592	0.608566	0.155604	1757.736000
6.208093	0.610318	0.155366	1758.236000
6.184122	0.612582	0.155067	1758.736000
6.167032	0.616078	0.154594	1759.236000
6.148702	0.619492	0.153732	1759.736000
6.131906	0.621552	0.153095	1760.237000
6.103418	0.622315	0.152664	1760.736000
6.090924	0.623121	0.152311	1761.236000
6.074967	0.624789	0.151795	1761.736000
6.061985	0.626525	0.151225	1762.236000
6.037059	0.627159	0.150761	1762.736000
6.013577	0.626953	0.150170	1763.236000
5.997476	0.626586	0.149585	1763.736000
5.972568	0.626024	0.149307	1764.236000
5.952178	0.626003	0.148820	1764.736000
5.931887	0.625431	0.148394	1765.236000
5.916797	0.623399	0.148252	1765.736000
5.893778	0.620795	0.147781	1766.236000
5.873070	0.618580	0.147248	1766.737000
5.849209	0.616507	0.146635	1767.236000
5.830654	0.613823	0.146154	1767.736000
5.811957	0.610117	0.145730	1768.237000
5.791077	0.606609	0.145114	1768.736000
5.773868	0.603294	0.144744	1769.236000
5.754112	0.601104	0.144264	1769.736000
5.735077	0.599012	0.144154	1770.237000
5.717975	0.596198	0.143967	1770.736000
5.694089	0.593818	0.143559	1771.236000
5.673891	0.591934	0.143133	1771.736000
5.652608	0.590204	0.142640	1772.236000
5.636239	0.588332	0.142082	1772.736000
5.619417	0.586370	0.141471	1773.237000
5.602942	0.585949	0.140625	1773.736000
5.580190	0.586328	0.139969	1774.236000
5.562105	0.586964	0.139551	1774.736000
5.541601	0.586942	0.139331	1775.236000
5.519720	0.587397	0.138754	1775.737000
5.495358	0.588954	0.138501	1776.236000
5.483893	0.590259	0.138342	1776.737000
5.465021	0.590645	0.138043	1777.236000
5.440956	0.592069	0.137450	1777.737000
5.410540	0.594034	0.137200	1778.236000
5.386906	0.595769	0.136631	1778.737000
5.366415	0.596197	0.135683	1779.236000
5.347651	0.597025	0.135022	1779.736000
5.333433	0.598291	0.134490	1780.236000
5.316006	0.599366	0.134073	1780.736000
5.303495	0.599832	0.133695	1781.236000
5.278079	0.599544	0.133295	1781.736000
5.258569	0.599070	0.133132	1782.236000
5.240021	0.598636	0.132650	1782.736000
5.219023	0.597941	0.132270	1783.237000
5.199061	0.596428	0.131792	1783.736000
5.175702	0.594562	0.131270	1784.236000
5.155584	0.593601	0.130679	1784.736000
5.139350	0.593218	0.130348	1785.236000
5.119027	0.592426	0.129742	1785.737000
5.101160	0.590756	0.129210	1786.236000
5.081390	0.588445	0.128622	1786.737000
5.058828	0.586281	0.127925	1787.236000
5.039512	0.584839	0.127513	1787.736000
5.019931	0.584311	0.127228	1788.236000
4.997718	0.583747	0.127012	1788.737000
4.978894	0.582955	0.126553	1789.236000
4.959183	0.582095	0.125801	1789.736000
4.938450	0.581984	0.125488	1790.237000
4.918214	0.582491	0.125085	1790.736000
4.900560	0.583622	0.124387	1791.236000
4.878605	0.584353	0.123840	1791.736000
4.858968	0.584887	0.123626	1792.236000
4.838956	0.584896	0.123649	1792.736000
4.813494	0.585669	0.123239	1793.237000
4.790013	0.587533	0.122517	1793.736000
4.767190	0.589377	0.121825	1794.237000
4.747771	0.590617	0.121390	1794.736000
4.728633	0.590783	0.121136	1795.236000
4.706757	0.590135	0.120474	1795.737000
4.684635	0.589542	0.119587	1796.236000
4.664414	0.589288	0.118999	1796.736000
4.645277	0.589295	0.118499	1797.236000
4.625399	0.588642	0.118323	1797.736000
4.605882	0.587868	0.117841	1798.236000
4.584502	0.586266	0.117254	1798.736000
4.564863	0.584924	0.117002	1799.236000
4.546728	0.584546	0.116595	1799.736000
4.525559	0.584301	0.116270	1800.236000
4.504975	0.584075	0.115871	1800.736000
4.483819	0.584007	0.115735	1801.236000
4.463480	0.583903	0.115236	1801.736000
4.443748	0.583431	0.114718	1802.237000
4.425472	0.582851	0.114136	1802.736000
4.405529	0.582638	0.113725	1803.236000
4.384031	0.583315	0.113283	1803.736000
4.363285	0.584553	0.113013	1804.236000
4.342834	0.585988	0.112305	1804.736000
4.323944	0.586851	0.111678	1805.236000
4.306250	0.587309	0.111029	1805.736000
4.284665	0.587457	0.110163	1806.236000
4.264676	0.587626	0.109757	1806.736000
4.245026	0.588213	0.109527	1807.236000
4.226156	0.588691	0.109067	1807.737000
4.207816	0.588873	0.108501	1808.236000
4.188690	0.588675	0.108058	1808.737000
4.169334	0.587404	0.107663	1809.236000
4.148488	0.586537	0.107324	1809.737000
4.129569	0.586106	0.106897	1810.236000
4.109248	0.586807	0.106574	1810.736000
4.088260	0.587206	0.106209	1811.237000
4.066369	0.587117	0.105868	1811.736000
4.047385	0.586934	0.105283	1812.237000
4.029399	0.586839	0.104527	1812.736000
4.009906	0.587300	0.103794	1813.236000
3.991012	0.588310	0.103280	1813.736000
3.970053	0.589104	0.102869	1814.236000
3.950414	0.590110	0.102584	1814.736000
3.930062	0.590391	0.102069	1815.236000
3.910027	0.590294	0.101645	1815.736000
3.890630	0.590380	0.101085	1816.236000
3.870463	0.590974	0.100377	1816.736000
3.850921	0.591708	0.100169	1817.236000
3.830196	0.592352	0.099874	1817.737000
3.810466	0.592663	0.099515	1818.236000
3.791226	0.592083	0.099106	1818.737000
3.770488	0.591560	0.098530	1819.236000
3.751016	0.592173	0.098060	1819.736000
3.729908	0.593143	0.097353	1820.237000
3.710390	0.593247	0.096961	1820.736000
3.690874	0.593191	0.096479	1821.237000
3.671164	0.592674	0.095874	1821.736000
3.651893	0.592785	0.095724	1822.237000
3.632051	0.594038	0.095648	1822.736000
3.610492	0.595019	0.095187	1823.236000
3.589133	0.595157	0.094547	1823.736000
3.569377	0.595484	0.093615	1824.236000
3.550734	0.595621	0.093387	1824.736000
3.532423	0.596842	0.093135	1825.236000
3.511393	0.597512	0.092737	1825.737000
3.490736	0.597144	0.092079	1826.236000
3.471362	0.596710	0.091238	1826.737000
3.453756	0.597037	0.090558	1827.236000
3.432659	0.598473	0.090205	1827.737000
3.412000	0.599965	0.089853	1828.236000
3.390485	0.600186	0.089586	1828.737000
3.371458	0.600253	0.089460	1829.236000
3.353432	0.601272	0.089285	1829.737000
3.332086	0.602537	0.089053	1830.236000
3.312016	0.603496	0.089000	1830.736000
3.292327	0.603213	0.088397	1831.237000
3.273896	0.602892	0.087808	1831.736000
3.255717	0.603017	0.087417	1832.236000
3.236894	0.603785	0.086751	1832.736000
3.217942	0.604821	0.086017	1833.236000
3.197970	0.605077	0.085457	1833.736000
3.178903	0.605277	0.085145	1834.237000
3.159639	0.606056	0.084617	1834.736000
3.140680	0.606885	0.083763	1835.237000
3.123051	0.608118	0.083268	1835.736000
3.101925	0.608953	0.082897	1836.236000
3.083238	0.609167	0.082547	1836.736000
3.061986	0.609609	0.081917	1837.236000
3.039727	0.610560	0.081552	1837.736000
3.019442	0.611788	0.081455	1838.236000
2.999099	0.612438	0.081009	1838.737000
2.977686	0.612547	0.080596	1839.236000
2.959486	0.612860	0.080133	1839.736000
2.940160	0.613631	0.079736	1840.236000
2.922171	0.615021	0.079111	1840.736000
2.904271	0.615938	0.078397	1841.236000
2.883804	0.616094	0.077424	1841.736000
2.862506	0.615891	0.076930	1842.236000
2.842183	0.616555	0.076592	1842.736000
2.824046	0.617529	0.075921	1843.236000
2.805131	0.618518	0.075462	1843.736000
2.786331	0.618765	0.075064	1844.237000
2.766607	0.619293	0.074777	1844.736000
2.748535	0.620533	0.074127	1845.237000
2.728831	0.621991	0.073399	1845.736000
2.707301	0.622543	0.073015	1846.236000
2.686003	0.623118	0.072943	1846.737000
2.667172	0.623880	0.072854	1847.236000
2.648993	0.624815	0.072355	1847.737000
2.628749	0.626244	0.072027	1848.236000
2.609244	0.626744	0.071460	1848.737000
2.588549	0.626916	0.071054	1849.236000
2.569893	0.627916	0.070636	1849.737000
2.551685	0.629279	0.070401	1850.236000
2.533895	0.630019	0.069986	1850.736000
2.514402	0.630509	0.069695	1851.236000
2.495063	0.631045	0.069357	1851.736000
2.475793	0.633055	0.068624	1852.237000
2.454560	0.634560	0.068115	1852.736000
2.433169	0.635776	0.067448	1853.236000
2.412963	0.636289	0.066611	1853.736000
2.393004	0.636700	0.066114	1854.237000
2.374770	0.638213	0.065949	1854.736000
2.356222	0.639803	0.065598	1855.236000
2.334165	0.640491	0.065132	1855.736000
2.313636	0.640510	0.064710	1856.236000
2.294566	0.640896	0.064487	1856.737000
2.275468	0.642233	0.063999	1857.236000
2.256337	0.644061	0.063369	1857.737000
2.237248	0.645102	0.062966	1858.236000
2.217049	0.645920	0.062609	1858.736000
2.197024	0.647287	0.062059	1859.236000
2.178815	0.648041	0.061558	1859.736000
2.159959	0.648789	0.061120	1860.236000
2.140325	0.649724	0.060689	1860.736000
2.120926	0.650890	0.060176	1861.236000
2.101132	0.651899	0.059849	1861.736000
2.081566	0.652598	0.059532	1862.237000
2.061622	0.653449	0.059071	1862.736000
2.039577	0.655470	0.058861	1863.236000
2.022243	0.657255	0.058311	1863.736000
2.002449	0.657880	0.057638	1864.237000
1.988053	0.658937	0.057251	1864.736000
1.968811	0.660665	0.056875	1865.236000
1.951454	0.662201	0.056342	1865.736000
1.929460	0.663529	0.055700	1866.236000
1.907665	0.664266	0.055161	1866.737000
1.889204	0.665160	0.054788	1867.236000
1.875062	0.666737	0.054776	1867.737000
1.856774	0.668735	0.054348	1868.236000
1.839975	0.669638	0.053731	1868.736000
1.818842	0.670851	0.053212	1869.236000
1.799644	0.672389	0.052634	1869.736000
1.782715	0.673572	0.051832	1870.236000
1.764976	0.674069	0.051358	1870.737000
1.744592	0.674516	0.050896	1871.236000
1.724500	0.675997	0.050467	1871.736000
1.704870	0.677896	0.050124	1872.236000
1.687858	0.678928	0.050013	1872.736000
1.667684	0.680030	0.049840	1873.237000
1.647297	0.681507	0.049142	1873.736000
1.628747	0.683246	0.048443	1874.237000
1.610147	0.685680	0.047917	1874.736000
1.593408	0.687210	0.047364	1875.236000
1.576489	0.688263	0.046929	1875.736000
1.557513	0.689808	0.046548	1876.236000
1.534465	0.691791	0.046132	1876.736000
1.514852	0.693398	0.045725	1877.236000
1.494167	0.694229	0.045438	1877.736000
1.474889	0.695476	0.044884	1878.236000
1.455310	0.697159	0.044408	1878.736000
1.438065	0.698920	0.044011	1879.236000
1.422226	0.700010	0.043782	1879.737000
1.406915	0.701050	0.043236	1880.236000
1.384929	0.703290	0.042669	1880.737000
1.362113	0.705772	0.041928	1881.237000
1.342482	0.706782	0.040906	1881.736000
1.325544	0.708162	0.040425	1882.236000
1.309504	0.710150	0.040164	1882.736000
1.292990	0.712494	0.039993	1883.237000
1.275644	0.713718	0.039997	1883.736000
1.263684	0.714319	0.039533	1884.236000
1.241427	0.715991	0.039158	1884.736000
1.221088	0.718282	0.038908	1885.236000
1.203418	0.720050	0.038543	1885.736000
1.174899	0.721270	0.038224	1886.236000
1.153954	0.723238	0.037490	1886.736000
1.132251	0.725857	0.036720	1887.236000
1.114996	0.727611	0.036376	1887.737000
1.098700	0.729347	0.035941	1888.236000
1.083916	0.731345	0.035146	1888.737000
1.066346	0.733119	0.034553	1889.236000
1.051165	0.734371	0.034329	1889.737000
1.031151	0.736093	0.034110	1890.236000
1.004909	0.738358	0.033863	1890.737000
0.988620	0.740129	0.033847	1891.236000
0.963203	0.741221	0.033464	1891.736000
0.947714	0.743089	0.033025	1892.237000
0.928893	0.745384	0.032505	1892.736000
0.904626	0.747052	0.031923	1893.237000
0.887618	0.748873	0.031439	1893.736000
0.874367	0.750690	0.030794	1894.237000
0.847574	0.752934	0.030328	1894.736000
0.827505	0.755508	0.030194	1895.236000
0.809644	0.757106	0.029725	1895.736000
0.795309	0.758976	0.028893	1896.237000
0.777850	0.762361	0.028299	1896.736000
0.755269	0.764651	0.027695	1897.236000
0.732501	0.766081	0.027440	1897.736000
0.718736	0.768379	0.027195	1898.236000
0.698919	0.769923	0.026643	1898.737000
0.675118	0.770895	0.025896	1899.236000
0.657348	0.771989	0.025402	1899.737000
0.637560	0.774722	0.025112	1900.236000
0.614706	0.776766	0.024811	1900.736000
0.593019	0.777689	0.024500	1901.236000
0.575949	0.779608	0.024172	1901.737000
0.553847	0.782187	0.023780	1902.237000
0.535576	0.784254	0.022966	1902.736000
0.506720	0.786236	0.022679	1903.236000
0.492323	0.788994	0.022654	1903.736000
0.477266	0.790957	0.022060	1904.236000
0.455873	0.792494	0.021287	1904.736000
0.438123	0.794575	0.020437	1905.236000
0.423260	0.797113	0.019601	1905.736000
0.404291	0.798832	0.019431	1906.237000
0.384067	0.800839	0.019525	1906.736000
0.365505	0.802577	0.019626	1907.236000
0.346736	0.804041	0.019324	1907.736000
0.327415	0.806039	0.018824	1908.236000
0.309460	0.808914	0.018299	1908.737000
0.290713	0.811031	0.017651	1909.236000
0.271027	0.812424	0.017482	1909.736000
0.250290	0.814901	0.017153	1910.236000
0.233612	0.817166	0.016575	1910.736000
0.213672	0.818517	0.015752	1911.236000
0.191238	0.819935	0.015005	1911.736000
0.168288	0.822073	0.014663	1912.236000
0.147463	0.823741	0.014237	1912.736000
0.139692	0.825031	0.013420	1913.236000
0.139604	0.827041	0.012865	1913.736000
0.139636	0.828476	0.012741	1914.237000
0.139836	0.829471	0.012638	1914.736000
0.140092	0.829785	0.012731	1915.237000
0.140161	0.830784	0.012782	1915.736000
0.140219	0.831958	0.012951	1916.236000
0.140220	0.832669	0.012889	1916.737000
0.140078	0.832954	0.012465	1917.236000
0.140168	0.833552	0.012286	1917.737000
0.140402	0.834072	0.012442	1918.236000
0.140597	0.833568	0.012569	1918.737000
0.140369	0.833318	0.012637	1919.236000
0.140274	0.833591	0.012204	1919.736000
0.139969	0.833781	0.011802	1920.236000
0.140240	0.833008	0.011420	1920.736000
0.140192	0.833380	0.011173	1921.236000
0.140158	0.833902	0.011388	1921.736000
0.140137	0.833641	0.011941	1922.236000
