Data run started at:  Thursday, October 19, 2017	3:30:23 PM
magnet(A)	lockin1(V)	lockin2(V)	time (sec)
NaN	NaN	NaN	12.943000
0.071213	0.504951	0.023462	13.316000
0.071476	0.504661	0.023391	13.817000
0.071600	0.504657	0.023346	14.316000
0.071680	0.504463	0.023187	14.817000
0.071496	0.504070	0.022937	15.316000
0.071338	0.503839	0.022838	15.816000
0.071571	0.503879	0.022704	16.316000
0.074306	0.504124	0.022653	16.816000
0.089805	0.503966	0.022641	17.316000
0.115769	0.503496	0.022662	17.817000
0.138846	0.502971	0.022720	18.316000
0.159480	0.502889	0.022991	18.816000
0.180960	0.502972	0.023432	19.316000
0.204724	0.502799	0.023913	19.816000
0.222678	0.502079	0.024381	20.316000
0.236161	0.501470	0.025113	20.816000
0.255152	0.501371	0.026036	21.317000
0.276828	0.501560	0.026948	21.816000
0.294377	0.501071	0.028062	22.316000
0.311038	0.500518	0.029198	22.816000
0.330198	0.499829	0.030224	23.317000
0.353644	0.498861	0.031283	23.817000
0.375489	0.497502	0.032389	24.316000
0.394773	0.495816	0.033413	24.817000
0.413506	0.494264	0.034360	25.316000
0.436066	0.493083	0.035287	25.816000
0.453068	0.492114	0.036352	26.316000
0.469678	0.491896	0.037663	26.816000
0.489311	0.491798	0.039057	27.316000
0.513486	0.491215	0.040277	27.817000
0.534284	0.490214	0.041451	28.316000
0.556311	0.488560	0.042636	28.817000
0.571706	0.486937	0.043934	29.316000
0.598285	0.485609	0.045262	29.816000
0.622900	0.484352	0.046602	30.316000
0.642720	0.483088	0.047712	30.816000
0.661319	0.481823	0.049012	31.317000
0.681451	0.480312	0.050398	31.816000
0.701139	0.478888	0.051860	32.316000
0.716136	0.477340	0.053284	32.816000
0.735072	0.475772	0.054668	33.316000
0.764652	0.474236	0.056290	33.816000
0.782383	0.473021	0.057806	34.316000
0.794919	0.472171	0.059321	34.817000
0.820880	0.471001	0.060562	35.316000
0.845612	0.470026	0.061635	35.816000
0.865603	0.468951	0.062756	36.316000
0.875574	0.467637	0.063747	36.816000
0.897877	0.466711	0.065019	37.316000
0.920134	0.465547	0.066316	37.817000
0.938339	0.464462	0.067694	38.316000
0.957996	0.463269	0.069086	38.816000
0.982257	0.461895	0.070442	39.316000
1.009851	0.460640	0.071853	39.816000
1.034695	0.459662	0.073363	40.317000
1.048507	0.458342	0.074704	40.816000
1.064330	0.456803	0.076119	41.317000
1.086343	0.455771	0.077641	41.816000
1.100693	0.454857	0.079207	42.317000
1.118901	0.453910	0.080812	42.816000
1.138662	0.452910	0.082153	43.316000
1.160640	0.451940	0.083338	43.816000
1.182888	0.451038	0.084594	44.316000
1.200412	0.449998	0.085738	44.816000
1.217392	0.448969	0.087103	45.316000
1.239358	0.447785	0.088414	45.816000
1.259023	0.446489	0.089588	46.316000
1.279406	0.444925	0.090722	46.816000
1.298851	0.443468	0.092074	47.316000
1.316108	0.442347	0.093393	47.817000
1.336725	0.441420	0.094697	48.316000
1.358212	0.440610	0.096017	48.817000
1.381708	0.439786	0.097494	49.316000
1.398750	0.438553	0.098975	49.816000
1.414545	0.437033	0.100402	50.317000
1.434972	0.435613	0.101738	50.816000
1.454094	0.434445	0.103082	51.316000
1.474118	0.433164	0.104443	51.816000
1.492557	0.431764	0.105782	52.316000
1.511198	0.430280	0.107152	52.816000
1.531075	0.428654	0.108541	53.316000
1.550042	0.427390	0.109918	53.816000
1.569615	0.426492	0.111123	54.316000
1.588885	0.425719	0.112216	54.816000
1.607953	0.425179	0.113471	55.316000
1.628377	0.424438	0.114758	55.816000
1.648478	0.423447	0.116081	56.316000
1.668339	0.422210	0.117596	56.816000
1.689292	0.421030	0.118978	57.316000
1.708640	0.419987	0.120296	57.816000
1.727778	0.418911	0.121531	58.316000
1.746955	0.417792	0.122786	58.816000
1.768093	0.416568	0.124098	59.316000
1.789522	0.415389	0.125485	59.816000
1.807797	0.414412	0.126915	60.317000
1.826206	0.413379	0.128331	60.816000
1.845756	0.412335	0.129686	61.316000
1.865489	0.411397	0.131070	61.816000
1.885337	0.410479	0.132317	62.316000
1.906777	0.409222	0.133513	62.816000
1.925480	0.407733	0.134801	63.317000
1.945398	0.406522	0.136313	63.816000
1.966032	0.405661	0.137703	64.317000
1.985084	0.404689	0.139046	64.816000
2.005579	0.403309	0.140289	65.316000
2.024888	0.401967	0.141540	65.817000
2.045875	0.400625	0.143013	66.316000
2.065788	0.399619	0.144411	66.817000
2.085270	0.398648	0.145867	67.316000
2.105078	0.397568	0.147264	67.817000
2.125709	0.396557	0.148542	68.316000
2.147294	0.395734	0.149929	68.816000
2.166727	0.394637	0.151434	69.316000
2.187388	0.393538	0.153055	69.816000
2.207457	0.392739	0.154513	70.316000
2.228229	0.391766	0.155777	70.816000
2.248075	0.390789	0.157043	71.316000
2.268655	0.389797	0.158462	71.816000
2.290363	0.388704	0.159815	72.316000
2.311382	0.387519	0.161138	72.816000
2.330874	0.386492	0.162575	73.317000
2.351431	0.385584	0.163774	73.816000
2.370522	0.384581	0.164987	74.317000
2.389603	0.383448	0.166315	74.816000
2.411145	0.382210	0.167531	75.316000
2.432434	0.381434	0.168729	75.817000
2.453056	0.380753	0.170000	76.316000
2.473171	0.379721	0.171270	76.816000
2.492491	0.378603	0.172755	77.316000
2.511804	0.377441	0.174166	77.816000
2.531393	0.376261	0.175530	78.316000
2.552348	0.374813	0.176859	78.816000
2.572601	0.373583	0.178276	79.316000
2.593538	0.372736	0.179707	79.817000
2.615506	0.371854	0.181012	80.316000
2.635579	0.370852	0.182552	80.816000
2.654368	0.369739	0.183992	81.316000
2.675419	0.368537	0.185439	81.816000
2.696061	0.367257	0.186953	82.316000
2.716407	0.366362	0.188364	82.816000
2.736004	0.365784	0.189709	83.317000
2.755688	0.365687	0.191087	83.816000
2.775414	0.365373	0.192436	84.316000
2.795190	0.364773	0.193700	84.816000
2.815431	0.364061	0.194988	85.316000
2.835010	0.362873	0.196244	85.817000
2.856298	0.361400	0.197590	86.316000
2.877052	0.359565	0.198976	86.816000
2.896112	0.357961	0.200239	87.316000
2.916113	0.356874	0.201576	87.816000
2.937072	0.356664	0.203061	88.316000
2.955228	0.356803	0.204653	88.816000
2.975932	0.356977	0.206220	89.316000
2.996814	0.356903	0.207653	89.817000
3.017748	0.355889	0.209082	90.316000
3.039624	0.353751	0.210363	90.816000
3.061123	0.351351	0.211720	91.317000
3.084573	0.349222	0.213090	91.816000
3.104726	0.347913	0.214527	92.317000
3.125095	0.347420	0.216005	92.816000
3.145972	0.347563	0.217387	93.316000
3.166278	0.348451	0.218749	93.816000
3.187002	0.349514	0.220115	94.316000
3.207620	0.349771	0.221615	94.816000
3.228257	0.348490	0.223102	95.316000
3.248375	0.346337	0.224504	95.816000
3.267512	0.343718	0.225931	96.316000
3.288095	0.341119	0.227399	96.816000
3.308390	0.339077	0.228760	97.316000
3.331451	0.338079	0.229878	97.816000
3.351090	0.338382	0.230810	98.316000
3.371039	0.339738	0.231990	98.817000
3.392205	0.341553	0.233281	99.316000
3.413563	0.343160	0.234732	99.817000
3.434651	0.343829	0.236180	100.316000
3.455078	0.342957	0.237680	100.816000
3.475672	0.340614	0.239249	101.317000
3.499119	0.337498	0.240752	101.816000
3.519657	0.333953	0.242180	102.316000
3.540660	0.330396	0.243556	102.816000
3.561128	0.327744	0.244846	103.317000
3.581811	0.326861	0.246108	103.816000
3.602818	0.327790	0.247236	104.316000
3.624798	0.330236	0.248463	104.816000
3.646241	0.333468	0.249838	105.316000
3.666619	0.336526	0.251374	105.817000
3.688138	0.338151	0.252993	106.317000
3.709128	0.338259	0.254735	106.816000
3.730627	0.336690	0.256476	107.316000
3.750458	0.333610	0.258091	107.816000
3.772126	0.329701	0.259657	108.316000
3.793527	0.325408	0.261222	108.817000
3.815943	0.321130	0.262507	109.316000
3.839744	0.317682	0.263694	109.817000
3.861098	0.316080	0.264854	110.316000
3.880685	0.316523	0.266045	110.816000
3.901192	0.318945	0.267403	111.317000
3.921524	0.322757	0.268837	111.816000
3.941251	0.327112	0.270054	112.316000
3.961533	0.331218	0.271293	112.816000
3.982023	0.334870	0.272692	113.316000
4.002495	0.337155	0.274245	113.816000
4.022220	0.337650	0.275863	114.316000
4.041108	0.336198	0.277263	114.816000
4.062435	0.332536	0.278702	115.317000
4.083799	0.327403	0.280314	115.816000
4.104807	0.321342	0.281967	116.316000
4.126071	0.315382	0.283506	116.816000
4.146363	0.310117	0.284809	117.316000
4.166664	0.306083	0.286166	117.816000
4.187363	0.303771	0.287471	118.316000
4.207449	0.303254	0.288763	118.817000
4.227756	0.305084	0.290144	119.316000
4.247986	0.309177	0.291308	119.817000
4.269128	0.314824	0.292456	120.316000
4.290379	0.321433	0.293550	120.817000
4.311383	0.328377	0.294762	121.316000
4.332239	0.334628	0.296160	121.816000
4.352937	0.339116	0.297746	122.316000
4.375010	0.342134	0.299365	122.816000
4.396399	0.343107	0.300790	123.317000
4.417488	0.341756	0.302404	123.816000
4.439939	0.337679	0.304150	124.316000
4.461212	0.331626	0.305874	124.816000
4.483233	0.324198	0.307661	125.317000
4.505486	0.316051	0.309324	125.816000
4.526385	0.307621	0.310901	126.316000
4.546540	0.300121	0.312346	126.816000
4.567041	0.294473	0.313748	127.316000
4.589609	0.290701	0.315055	127.816000
4.611007	0.289636	0.316262	128.316000
4.631628	0.291594	0.317344	128.817000
4.650539	0.296457	0.318327	129.316000
4.671820	0.303305	0.319181	129.816000
4.692588	0.311625	0.320259	130.316000
4.713362	0.320828	0.321421	130.816000
4.733148	0.330498	0.322730	131.316000
4.753999	0.339802	0.323988	131.817000
4.774786	0.347739	0.325334	132.316000
4.797700	0.353850	0.326597	132.816000
4.818058	0.357669	0.328012	133.316000
4.838374	0.358843	0.329662	133.816000
4.859205	0.357640	0.331483	134.317000
4.879905	0.353820	0.333474	134.816000
4.900742	0.347534	0.335400	135.316000
4.921368	0.339493	0.337208	135.816000
4.940714	0.330227	0.338971	136.317000
4.960352	0.320162	0.340632	136.817000
4.980843	0.309615	0.342314	137.316000
5.001499	0.299355	0.343871	137.817000
5.022942	0.289906	0.345247	138.316000
5.044620	0.282025	0.346532	138.817000
5.064755	0.276384	0.347840	139.316000
5.086015	0.273323	0.348977	139.816000
5.108145	0.273029	0.349984	140.316000
5.127173	0.275793	0.350810	140.816000
5.146506	0.281890	0.351781	141.316000
5.167807	0.291083	0.352636	141.816000
5.186523	0.302787	0.353551	142.317000
5.206792	0.316080	0.354612	142.816000
5.227268	0.330204	0.355705	143.316000
5.248648	0.344088	0.356697	143.816000
5.271359	0.356548	0.357814	144.317000
5.289768	0.367525	0.358945	144.816000
5.311606	0.376918	0.360119	145.316000
5.332443	0.384358	0.361454	145.816000
5.352710	0.389287	0.362913	146.316000
5.374219	0.391685	0.364554	146.816000
5.397543	0.391538	0.366388	147.316000
5.423448	0.388979	0.368161	147.817000
5.444342	0.384287	0.369966	148.316000
5.465433	0.377502	0.372003	148.816000
5.487849	0.368462	0.373805	149.316000
5.507341	0.357493	0.375661	149.816000
5.528844	0.345287	0.377616	150.316000
5.549250	0.332146	0.379419	150.817000
5.569947	0.318936	0.381326	151.316000
5.588837	0.305841	0.383246	151.816000
5.608808	0.293015	0.384999	152.316000
5.628264	0.281019	0.386474	152.816000
5.649537	0.270642	0.387675	153.317000
5.673395	0.262369	0.388721	153.816000
5.695085	0.256830	0.389753	154.317000
5.713451	0.254614	0.390758	154.816000
5.733600	0.256024	0.391593	155.316000
5.756192	0.260897	0.392395	155.816000
5.776359	0.269476	0.393154	156.317000
5.797511	0.281219	0.393970	156.816000
5.817065	0.295793	0.394939	157.316000
5.837510	0.312534	0.395898	157.816000
5.859106	0.330730	0.396801	158.316000
5.881478	0.349848	0.397848	158.816000
5.899488	0.368798	0.399082	159.316000
5.920178	0.386837	0.400323	159.816000
5.941769	0.403585	0.401549	160.316000
5.963171	0.418472	0.402757	160.817000
5.981806	0.431035	0.404066	161.316000
6.004172	0.441386	0.405519	161.816000
6.025661	0.448896	0.407034	162.316000
6.044014	0.453589	0.408637	162.816000
6.063706	0.455850	0.410400	163.317000
6.086255	0.455886	0.412038	163.816000
6.108778	0.453746	0.413709	164.316000
6.124615	0.449435	0.415345	164.816000
6.144916	0.443063	0.417072	165.316000
6.166116	0.435018	0.418849	165.816000
6.189102	0.425493	0.420774	166.316000
6.206638	0.414291	0.422624	166.816000
6.226346	0.401697	0.424488	167.316000
6.246278	0.388046	0.426445	167.816000
6.265665	0.374064	0.428361	168.316000
6.284332	0.359461	0.430396	168.816000
6.302366	0.344454	0.432352	169.316000
6.321649	0.329626	0.434237	169.817000
6.341070	0.314865	0.435914	170.316000
6.365161	0.300355	0.437561	170.816000
6.381827	0.286165	0.439078	171.316000
6.402985	0.272846	0.440435	171.816000
6.421540	0.260989	0.441501	172.316000
6.443422	0.250609	0.442513	172.816000
6.469599	0.242335	0.443522	173.317000
6.486145	0.236738	0.444332	173.816000
6.505492	0.233892	0.445083	174.317000
6.523441	0.234253	0.445735	174.816000
6.542233	0.238499	0.446270	175.316000
6.564029	0.246297	0.446459	175.816000
6.583038	0.258176	0.446824	176.316000
6.602060	0.273274	0.447417	176.816000
6.621239	0.290900	0.448063	177.317000
6.641777	0.310511	0.448736	177.817000
6.661519	0.331911	0.449393	178.316000
6.682240	0.354383	0.450322	178.816000
6.703462	0.377518	0.451401	179.316000
6.723781	0.400881	0.452581	179.817000
6.744492	0.424043	0.453577	180.316000
6.765287	0.446489	0.454542	180.817000
6.786421	0.467643	0.455578	181.316000
6.806439	0.487335	0.456648	181.816000
6.827485	0.505728	0.457797	182.316000
6.847941	0.522092	0.459168	182.817000
6.869110	0.535976	0.460521	183.316000
6.888297	0.547612	0.461910	183.816000
6.908452	0.557048	0.463413	184.317000
6.929242	0.563716	0.465092	184.816000
6.949628	0.567858	0.466766	185.316000
6.969604	0.569650	0.468509	185.816000
6.990341	0.569400	0.470364	186.317000
7.011831	0.567237	0.472337	186.816000
7.032844	0.562871	0.474228	187.316000
7.054274	0.556898	0.476069	187.816000
7.074965	0.549392	0.477735	188.316000
7.094024	0.540457	0.479339	188.817000
7.113935	0.530747	0.481002	189.316000
7.134991	0.519408	0.482926	189.817000
7.155592	0.506946	0.485051	190.316000
7.176044	0.493718	0.487159	190.816000
7.196411	0.479627	0.489396	191.316000
7.216220	0.464676	0.491475	191.816000
7.236857	0.448773	0.493478	192.316000
7.257937	0.432318	0.495462	192.816000
7.278287	0.415789	0.497415	193.316000
7.298279	0.398695	0.499406	193.816000
7.320058	0.381322	0.501226	194.317000
7.340948	0.363786	0.503132	194.816000
7.362030	0.346427	0.505172	195.316000
7.383426	0.329161	0.507158	195.816000
7.404259	0.312049	0.509090	196.317000
7.426476	0.295425	0.510687	196.816000
7.448048	0.279489	0.512138	197.316000
7.469295	0.264163	0.513274	197.816000
7.490392	0.249709	0.514524	198.316000
7.512398	0.236836	0.515477	198.817000
7.533665	0.226610	0.516242	199.316000
7.554843	0.219596	0.516922	199.816000
7.575644	0.215772	0.517490	200.316000
7.598740	0.215587	0.517894	200.816000
7.620715	0.219653	0.518312	201.316000
7.640928	0.227763	0.518690	201.817000
7.659655	0.239801	0.519004	202.316000
7.679680	0.255634	0.519591	202.816000
7.699823	0.274418	0.520136	203.316000
7.721499	0.296167	0.520794	203.816000
7.742374	0.320467	0.521387	204.316000
7.761798	0.346581	0.522037	204.816000
7.782802	0.374446	0.522694	205.317000
7.804302	0.403418	0.523419	205.816000
7.826044	0.432726	0.524222	206.317000
7.847309	0.462543	0.524977	206.816000
7.867624	0.492153	0.525906	207.316000
7.888427	0.521008	0.526812	207.816000
7.908048	0.548960	0.527932	208.317000
7.929623	0.575764	0.529233	208.817000
7.949187	0.601014	0.530603	209.316000
7.969846	0.624581	0.531992	209.816000
7.990485	0.646364	0.533238	210.316000
8.011411	0.666240	0.534535	210.816000
8.031759	0.684169	0.535987	211.316000
8.052772	0.700365	0.537393	211.816000
8.073564	0.714681	0.538810	212.316000
8.092585	0.727669	0.540336	212.816000
8.112131	0.738641	0.541807	213.316000
8.132480	0.747881	0.543144	213.816000
8.152762	0.754636	0.544493	214.316000
8.173355	0.759133	0.545927	214.816000
8.194762	0.762366	0.547500	215.317000
8.215993	0.763465	0.549107	215.816000
8.235960	0.763246	0.550785	216.317000
8.255039	0.761533	0.552484	216.816000
8.275129	0.758397	0.554207	217.316000
8.298573	0.753508	0.555815	217.816000
8.319412	0.746824	0.557572	218.316000
8.339708	0.739151	0.559335	218.817000
8.359551	0.730506	0.561134	219.316000
8.380655	0.720667	0.562930	219.816000
8.402121	0.709622	0.564666	220.316000
8.423300	0.697185	0.566605	220.816000
8.442864	0.684093	0.568614	221.316000
8.462914	0.670430	0.570671	221.817000
8.484288	0.656118	0.572658	222.316000
8.504950	0.641285	0.574617	222.816000
8.525725	0.625559	0.576740	223.316000
8.546411	0.609299	0.578912	223.816000
8.566875	0.592602	0.580986	224.317000
8.586546	0.575568	0.583054	224.816000
8.606667	0.558029	0.585257	225.317000
8.627035	0.539981	0.587389	225.816000
8.647329	0.521199	0.589451	226.317000
8.668241	0.502524	0.591545	226.816000
8.689089	0.483877	0.593568	227.316000
8.710086	0.465044	0.595610	227.816000
8.729283	0.446194	0.597566	228.316000
8.749634	0.427215	0.599513	228.816000
8.768416	0.407981	0.601483	229.316000
8.790451	0.388860	0.603559	229.817000
8.811357	0.369844	0.605894	230.316000
8.832275	0.351004	0.608001	230.816000
8.851417	0.332507	0.609804	231.316000
8.871326	0.314314	0.611473	231.817000
8.890848	0.296288	0.612949	232.316000
8.910648	0.278824	0.614375	232.816000
8.930639	0.261822	0.615596	233.316000
8.950903	0.245653	0.616614	233.817000
8.972253	0.230882	0.617423	234.317000
8.992509	0.218135	0.618096	234.816000
9.012695	0.207611	0.618577	235.316000
9.031832	0.199546	0.618816	235.816000
9.052444	0.194501	0.619052	236.316000
9.072705	0.192851	0.619435	236.816000
9.094461	0.194471	0.619878	237.316000
9.115057	0.199508	0.620124	237.816000
9.135109	0.207800	0.620193	238.316000
9.155487	0.219001	0.620200	238.816000
9.177154	0.233030	0.620364	239.316000
9.198117	0.249817	0.620558	239.816000
9.218127	0.269425	0.620696	240.316000
9.238642	0.292118	0.620893	240.817000
9.258828	0.317352	0.621117	241.316000
9.279407	0.344948	0.621548	241.817000
9.300154	0.374245	0.622092	242.316000
9.320267	0.405220	0.622784	242.816000
9.341779	0.437555	0.623472	243.316000
9.362395	0.470483	0.624147	243.817000
9.384589	0.503589	0.624849	244.316000
9.404993	0.536703	0.625504	244.816000
9.425989	0.570059	0.626064	245.316000
9.445887	0.603179	0.626793	245.816000
9.467595	0.635605	0.627743	246.316000
9.486980	0.667302	0.628950	246.816000
9.507338	0.698390	0.630309	247.316000
9.527355	0.728281	0.631620	247.816000
9.549456	0.756645	0.632782	248.316000
9.571808	0.783950	0.633912	248.816000
9.593597	0.810188	0.635223	249.316000
9.613202	0.835199	0.636471	249.816000
9.633926	0.858309	0.637882	250.316000
9.654539	0.880316	0.639311	250.817000
9.675964	0.901116	0.640603	251.316000
9.697349	0.920774	0.641939	251.816000
9.718083	0.939495	0.643256	252.316000
9.740708	0.956774	0.644658	252.816000
9.761622	0.972580	0.646039	253.316000
9.783040	0.987230	0.647588	253.816000
9.803433	1.001065	0.649102	254.316000
9.823383	1.013919	0.650468	254.816000
9.844505	1.025313	0.651959	255.317000
9.865975	1.035593	0.653500	255.816000
9.888305	1.044825	0.655182	256.316000
9.907991	1.052856	0.656781	256.816000
9.928485	1.059990	0.658306	257.317000
9.947459	1.066257	0.659794	257.816000
9.968954	1.071147	0.661336	258.316000
9.988370	1.074923	0.662989	258.816000
10.008380	1.077560	0.664785	259.316000
10.028320	1.079133	0.666269	259.817000
10.048895	1.079612	0.667995	260.317000
10.070493	1.079457	0.669733	260.817000
10.091793	1.078214	0.671268	261.316000
10.111373	1.075900	0.672636	261.816000
10.131252	1.072688	0.674180	262.316000
10.151002	1.068441	0.675722	262.816000
10.169793	1.063242	0.677302	263.316000
10.189369	1.057517	0.679173	263.816000
10.208790	1.050816	0.681069	264.316000
10.228578	1.043218	0.682938	264.816000
10.248900	1.034517	0.684843	265.316000
10.269144	1.024921	0.686713	265.816000
10.289966	1.015142	0.688480	266.316000
10.310802	1.004809	0.690054	266.816000
10.330304	0.993532	0.691863	267.317000
10.349632	0.981713	0.693836	267.816000
10.369542	0.968857	0.695792	268.317000
10.387304	0.954920	0.697738	268.816000
10.408236	0.940657	0.699510	269.316000
10.430850	0.925819	0.701270	269.816000
10.449011	0.910439	0.703096	270.316000
10.470179	0.894965	0.704822	270.816000
10.490825	0.878952	0.706710	271.316000
10.508638	0.862468	0.708646	271.816000
10.528827	0.845674	0.710462	272.316000
10.551011	0.828567	0.712253	272.816000
10.571555	0.811262	0.714191	273.316000
10.591487	0.793463	0.716235	273.817000
10.610208	0.775410	0.718378	274.316000
10.629808	0.757520	0.720546	274.817000
10.651936	0.739755	0.722690	275.316000
10.670965	0.721878	0.724760	275.816000
10.690645	0.703753	0.726736	276.317000
10.710827	0.685238	0.728673	276.816000
10.733239	0.666133	0.730763	277.317000
10.751625	0.646605	0.733046	277.816000
10.772663	0.627009	0.735298	278.317000
10.790581	0.607084	0.737497	278.816000
10.807191	0.586922	0.739796	279.316000
10.824989	0.566692	0.741952	279.816000
10.847344	0.546512	0.744111	280.316000
10.868791	0.526206	0.746266	280.816000
10.886726	0.505985	0.748335	281.316000
10.909115	0.485726	0.750280	281.817000
10.930732	0.465296	0.752267	282.316000
10.949403	0.444694	0.754336	282.817000
10.968192	0.424263	0.756383	283.316000
10.985494	0.404521	0.758392	283.816000
11.005642	0.384831	0.760217	284.316000
11.026211	0.365149	0.761830	284.816000
11.059283	0.345695	0.763462	285.316000
11.076286	0.326201	0.765094	285.816000
11.087304	0.306681	0.766342	286.316000
11.102818	0.287174	0.767191	286.816000
11.123228	0.268034	0.767845	287.316000
11.148441	0.249468	0.768453	287.816000
11.169303	0.232198	0.769011	288.317000
11.188121	0.216552	0.769549	288.816000
11.209637	0.202867	0.770038	289.316000
11.228569	0.191418	0.770251	289.816000
11.249764	0.182276	0.770337	290.316000
11.269901	0.175278	0.770496	290.816000
11.289513	0.171260	0.770709	291.316000
11.309690	0.170377	0.770918	291.817000
11.331388	0.172302	0.770938	292.316000
11.355813	0.176747	0.770830	292.817000
11.371423	0.183120	0.770778	293.316000
11.391603	0.191841	0.770813	293.816000
11.411425	0.203015	0.770757	294.316000
11.431174	0.215967	0.770622	294.816000
11.452789	0.230908	0.770440	295.316000
11.472341	0.247971	0.770260	295.816000
11.493755	0.267241	0.770150	296.316000
11.514457	0.288303	0.770217	296.816000
11.534819	0.311505	0.770231	297.316000
11.552500	0.336920	0.770301	297.816000
11.573381	0.363956	0.770518	298.317000
11.594250	0.392603	0.770816	298.816000
11.614030	0.422809	0.771270	299.316000
11.634303	0.454526	0.771739	299.816000
11.654105	0.487644	0.772268	300.316000
11.673093	0.521483	0.772689	300.816000
11.694629	0.556037	0.773320	301.316000
11.714683	0.591000	0.773918	301.816000
11.734896	0.626146	0.774631	302.316000
11.755137	0.660958	0.775465	302.817000
11.774460	0.695531	0.776262	303.316000
11.793982	0.729987	0.777032	303.817000
11.814591	0.763739	0.777873	304.316000
11.836509	0.796493	0.778920	304.816000
11.855596	0.828699	0.779867	305.316000
11.876551	0.860067	0.780766	305.816000
11.896096	0.891069	0.781903	306.317000
11.917592	0.921495	0.782995	306.816000
11.938899	0.951174	0.784201	307.317000
11.958362	0.979852	0.785646	307.816000
11.978402	1.007596	0.787079	308.316000
11.998163	1.034348	0.788312	308.816000
12.019539	1.060133	0.789554	309.316000
12.039004	1.085316	0.790898	309.816000
12.059675	1.109517	0.792200	310.316000
12.079548	1.133058	0.793533	310.816000
12.101471	1.156190	0.794832	311.316000
12.120531	1.178044	0.796061	311.816000
12.141614	1.198880	0.797351	312.316000
12.161294	1.219249	0.798674	312.816000
12.182064	1.238983	0.800081	313.316000
12.203852	1.257987	0.801434	313.817000
12.224350	1.275883	0.802712	314.316000
12.244195	1.293089	0.803959	314.816000
12.263457	1.309827	0.805338	315.316000
12.284578	1.325790	0.806747	315.816000
12.305428	1.341151	0.808142	316.316000
12.326530	1.356123	0.809641	316.816000
12.346127	1.370270	0.811117	317.316000
12.366227	1.384029	0.812662	317.816000
12.385091	1.396900	0.814164	318.317000
12.405190	1.408848	0.815541	318.816000
12.425922	1.420268	0.816978	319.316000
12.446107	1.431142	0.818410	319.816000
12.467083	1.441415	0.819839	320.316000
12.487451	1.451577	0.821332	320.816000
12.508683	1.461137	0.822868	321.317000
12.528989	1.469905	0.824395	321.816000
12.547128	1.478101	0.825944	322.316000
12.566123	1.485746	0.827290	322.817000
12.586234	1.492732	0.828656	323.316000
12.608738	1.499198	0.830108	323.816000
12.629518	1.505525	0.831667	324.316000
12.649600	1.511419	0.833168	324.816000
12.670501	1.516978	0.834667	325.316000
12.691459	1.522206	0.836236	325.816000
12.711295	1.527354	0.837788	326.316000
12.731198	1.531680	0.839347	326.816000
12.749754	1.535884	0.840841	327.316000
12.769732	1.539667	0.842200	327.816000
12.790951	1.543142	0.843454	328.317000
12.812247	1.545964	0.844718	328.816000
12.833651	1.548466	0.846022	329.316000
12.853057	1.550707	0.847378	329.816000
12.873372	1.552263	0.848861	330.316000
12.893536	1.553735	0.850531	330.816000
12.914639	1.554774	0.852053	331.316000
12.934772	1.555624	0.853474	331.817000
12.955993	1.555975	0.854914	332.316000
12.976501	1.555862	0.856335	332.816000
12.996932	1.555653	0.857721	333.316000
13.016973	1.555676	0.859183	333.816000
13.036767	1.555234	0.860646	334.316000
13.059700	1.554498	0.862137	334.816000
13.080656	1.553230	0.863658	335.316000
13.102094	1.551464	0.865200	335.816000
13.122675	1.549473	0.866783	336.316000
13.141595	1.547176	0.868385	336.816000
13.162222	1.544591	0.870003	337.316000
13.181918	1.541729	0.871663	337.816000
13.201986	1.538807	0.873308	338.317000
13.222339	1.535542	0.874895	338.816000
13.242662	1.532085	0.876561	339.316000
13.263715	1.528260	0.878379	339.816000
13.285969	1.523814	0.880218	340.316000
13.306324	1.518881	0.881847	340.816000
13.326810	1.513505	0.883288	341.316000
13.346701	1.507673	0.884583	341.816000
13.366791	1.501315	0.886046	342.316000
13.387617	1.495160	0.887813	342.816000
13.408522	1.488862	0.889656	343.316000
13.428524	1.481810	0.891476	343.816000
13.447817	1.474068	0.893200	344.316000
13.468462	1.465779	0.894944	344.816000
13.490031	1.457190	0.896606	345.316000
13.511030	1.448135	0.898437	345.817000
13.531054	1.438788	0.900257	346.316000
13.552518	1.428761	0.902101	346.816000
13.574128	1.417752	0.903914	347.317000
13.595232	1.406526	0.905901	347.816000
13.614597	1.395231	0.907967	348.317000
13.635820	1.383603	0.909919	348.816000
13.656683	1.371029	0.911865	349.316000
13.677835	1.358116	0.913757	349.816000
13.698265	1.344287	0.915601	350.316000
13.717997	1.329600	0.917595	350.816000
13.738679	1.314624	0.919598	351.317000
13.758431	1.299505	0.921539	351.816000
13.780182	1.284405	0.923564	352.316000
13.800710	1.269029	0.925666	352.816000
13.821222	1.253358	0.927798	353.316000
13.841350	1.237106	0.929871	353.816000
13.862480	1.220479	0.931936	354.316000
13.884336	1.203618	0.934074	354.816000
13.904615	1.186451	0.936302	355.316000
13.924620	1.168806	0.938493	355.817000
13.944662	1.150873	0.940536	356.316000
13.964600	1.133100	0.942861	356.817000
13.985935	1.115412	0.945208	357.317000
14.007277	1.097606	0.947527	357.816000
14.028138	1.079741	0.949703	358.316000
14.049053	1.061907	0.951967	358.816000
14.069549	1.044222	0.954283	359.316000
14.090806	1.025825	0.956532	359.816000
14.110545	1.006623	0.958798	360.317000
14.130920	0.987023	0.961014	360.816000
14.152844	0.967472	0.963256	361.316000
14.172955	0.947480	0.965506	361.816000
14.193372	0.927201	0.967961	362.316000
14.214039	0.906574	0.970257	362.816000
14.234510	0.885685	0.972455	363.316000
14.255509	0.864187	0.974626	363.817000
14.276466	0.842258	0.976914	364.316000
14.297479	0.819970	0.979151	364.816000
14.318341	0.797238	0.981436	365.316000
14.340189	0.774146	0.983669	365.816000
14.361960	0.750498	0.985906	366.316000
14.382477	0.726361	0.988263	366.816000
14.402542	0.701898	0.990598	367.316000
14.422781	0.677050	0.992927	367.816000
14.443784	0.652178	0.995234	368.316000
14.466853	0.627660	0.997602	368.816000
14.488901	0.602978	0.999828	369.316000
14.509613	0.577927	1.001744	369.816000
14.529822	0.552854	1.003530	370.316000
14.551318	0.528470	1.005380	370.816000
14.572635	0.504088	1.007297	371.316000
14.592703	0.479847	1.009085	371.816000
14.615466	0.455589	1.010629	372.316000
14.639816	0.431348	1.012182	372.816000
14.662285	0.406955	1.013706	373.316000
14.684080	0.382755	1.015231	373.816000
14.703180	0.358624	1.016396	374.316000
14.724256	0.334995	1.017338	374.816000
14.746692	0.311560	1.018274	375.316000
14.767825	0.288661	1.019174	375.817000
14.789892	0.267120	1.019830	376.316000
14.811761	0.247020	1.020279	376.816000
14.831708	0.228710	1.020654	377.316000
14.854971	0.212237	1.020789	377.816000
14.876786	0.197707	1.020807	378.316000
14.896754	0.185175	1.020788	378.816000
14.916956	0.174964	1.020833	379.316000
14.937685	0.167191	1.020845	379.816000
14.960289	0.161358	1.020964	380.317000
14.981079	0.157648	1.021015	380.816000
15.001260	0.155697	1.021030	381.317000
15.023048	0.155481	1.020954	381.816000
15.042623	0.157191	1.021132	382.317000
15.062531	0.160787	1.021233	382.816000
15.084122	0.165335	1.021152	383.316000
15.104905	0.171033	1.021163	383.816000
15.124573	0.178392	1.021302	384.316000
15.145966	0.186791	1.021500	384.816000
15.167465	0.196202	1.021551	385.316000
15.187558	0.206907	1.021489	385.816000
15.209918	0.218684	1.021435	386.316000
15.230676	0.231332	1.021425	386.816000
15.250718	0.245113	1.021427	387.316000
15.271139	0.260195	1.021374	387.816000
15.291267	0.276312	1.021264	388.316000
15.310987	0.293651	1.021260	388.816000
15.331045	0.312461	1.021331	389.317000
15.351315	0.332631	1.021277	389.816000
15.374214	0.353590	1.021086	390.317000
15.395458	0.375859	1.020635	390.816000
15.416302	0.399794	1.020330	391.316000
15.435962	0.425521	1.020185	391.816000
15.456393	0.452907	1.020158	392.316000
15.478005	0.481386	1.020197	392.816000
15.496515	0.511141	1.020235	393.316000
15.517260	0.542402	1.020291	393.817000
15.537564	0.575098	1.020475	394.316000
15.559238	0.608893	1.020795	394.816000
15.579306	0.643453	1.021207	395.316000
15.600519	0.678548	1.021650	395.817000
15.621184	0.714189	1.022046	396.316000
15.643384	0.750201	1.022464	396.816000
15.663326	0.786848	1.023080	397.316000
15.682645	0.823692	1.023652	397.816000
15.705177	0.860672	1.024306	398.316000
15.726110	0.897670	1.025159	398.816000
15.745398	0.934395	1.025942	399.317000
15.766219	0.970642	1.026812	399.816000
15.787888	1.006235	1.027686	400.316000
15.806656	1.041303	1.028505	400.816000
15.829642	1.075916	1.029318	401.316000
15.849703	1.109889	1.030248	401.816000
15.868192	1.142880	1.031260	402.316000
15.890695	1.175426	1.032333	402.816000
15.908893	1.207014	1.033540	403.316000
15.929037	1.237887	1.034966	403.816000
15.949509	1.268492	1.036276	404.316000
15.974319	1.298301	1.037399	404.816000
15.992252	1.327057	1.038456	405.316000
16.011450	1.355021	1.039579	405.816000
16.031180	1.382231	1.040793	406.316000
16.052228	1.408459	1.041977	406.817000
16.071242	1.434114	1.043185	407.316000
16.094623	1.458825	1.044348	407.816000
16.112973	1.483027	1.045664	408.316000
16.135805	1.506317	1.046909	408.816000
16.155536	1.529439	1.048308	409.316000
16.173853	1.552351	1.049615	409.816000
16.194363	1.574280	1.050955	410.316000
16.217841	1.595292	1.052319	410.816000
16.238705	1.615606	1.053741	411.316000
16.258263	1.635375	1.055372	411.816000
16.278128	1.654650	1.056953	412.316000
16.301314	1.673296	1.058382	412.816000
16.322859	1.691401	1.059751	413.316000
16.341139	1.708981	1.061198	413.816000
16.362114	1.726109	1.062712	414.316000
16.384464	1.742810	1.064290	414.817000
16.404886	1.759128	1.065985	415.316000
16.426031	1.774508	1.067593	415.816000
16.448431	1.789287	1.069100	416.316000
16.468589	1.803857	1.070595	416.817000
16.488660	1.818052	1.072128	417.316000
16.509583	1.831606	1.073609	417.816000
16.528281	1.844868	1.075057	418.316000
16.551112	1.857381	1.076416	418.816000
16.571570	1.869449	1.077929	419.316000
16.589865	1.881170	1.079433	419.816000
16.611795	1.892420	1.081108	420.316000
16.633768	1.903436	1.082878	420.816000
16.648996	1.913941	1.084511	421.316000
16.669086	1.924233	1.085971	421.816000
16.688301	1.933463	1.087458	422.316000
16.708631	1.942226	1.088978	422.816000
16.729346	1.950763	1.090506	423.316000
16.750178	1.959007	1.092026	423.816000
16.770171	1.966797	1.093609	424.316000
16.790634	1.974343	1.095224	424.816000
16.812601	1.981541	1.096903	425.316000
16.833444	1.988386	1.098387	425.816000
16.851782	1.994921	1.100019	426.316000
16.872489	2.001217	1.101600	426.816000
16.894424	2.007519	1.103021	427.316000
16.914202	2.013348	1.104407	427.816000
16.933822	2.018643	1.105847	428.316000
16.955378	2.023649	1.107397	428.816000
16.975790	2.028470	1.109060	429.316000
16.997464	2.032791	1.110764	429.816000
17.017667	2.036768	1.112414	430.316000
17.037176	2.040688	1.114213	430.816000
17.058067	2.044445	1.115994	431.316000
17.080517	2.048014	1.117651	431.816000
17.101374	2.051119	1.119268	432.316000
17.122466	2.053973	1.120965	432.816000
17.142330	2.056768	1.122646	433.316000
17.162997	2.059570	1.124233	433.816000
17.182506	2.062315	1.125848	434.317000
17.202221	2.064301	1.127452	434.816000
17.223068	2.066132	1.128932	435.316000
17.244449	2.067790	1.130327	435.816000
17.265018	2.069229	1.131776	436.316000
17.285452	2.070421	1.133289	436.816000
17.305996	2.071367	1.134800	437.316000
17.327460	2.072432	1.136350	437.816000
17.346463	2.073715	1.137897	438.316000
17.367856	2.074911	1.139380	438.816000
17.389393	2.075879	1.140765	439.316000
17.410842	2.076333	1.142214	439.816000
17.431848	2.076799	1.143761	440.317000
17.451508	2.077155	1.145472	440.816000
17.471616	2.077318	1.147043	441.316000
17.492016	2.077672	1.148491	441.816000
17.513566	2.077667	1.150017	442.316000
17.533665	2.077518	1.151490	442.816000
17.554845	2.077357	1.152899	443.316000
17.575168	2.077113	1.154244	443.816000
17.596478	2.076616	1.155744	444.316000
17.616278	2.076313	1.157308	444.816000
17.636490	2.075514	1.158799	445.316000
17.656888	2.074732	1.160195	445.816000
17.677379	2.074201	1.161682	446.316000
17.698708	2.073853	1.163192	446.816000
17.718875	2.074022	1.164634	447.316000
17.739280	2.073722	1.166060	447.816000
17.759961	2.073034	1.167327	448.316000
17.780410	2.071735	1.168694	448.817000
17.801050	2.070867	1.170038	449.316000
17.822786	2.070322	1.171335	449.816000
17.842456	2.070077	1.172532	450.316000
17.862296	2.069969	1.173683	450.816000
17.883529	2.069777	1.174847	451.316000
17.904211	2.069036	1.176125	451.816000
17.924611	2.068276	1.177349	452.317000
17.943583	2.067724	1.178533	452.816000
17.962961	2.067408	1.179723	453.316000
17.983064	2.067219	1.181048	453.816000
18.002865	2.067091	1.182260	454.316000
18.022836	2.066786	1.183413	454.816000
18.042252	2.066398	1.184741	455.316000
18.062112	2.066277	1.185973	455.816000
18.082829	2.066412	1.187172	456.316000
18.102720	2.066376	1.188364	456.817000
18.121818	2.066547	1.189647	457.316000
18.141853	2.066928	1.190977	457.816000
18.163466	2.067739	1.192147	458.316000
18.183659	2.068751	1.193137	458.817000
18.203046	2.069293	1.194163	459.316000
18.222771	2.070083	1.195142	459.816000
18.242255	2.070893	1.196261	460.316000
18.263084	2.071946	1.197494	460.816000
18.283389	2.073612	1.198664	461.316000
18.303924	2.075453	1.199860	461.816000
18.323647	2.077162	1.200961	462.316000
18.343098	2.078939	1.202088	462.816000
18.363082	2.080985	1.203215	463.316000
18.384300	2.083120	1.204296	463.816000
18.403665	2.085510	1.205421	464.317000
18.423162	2.088326	1.206614	464.816000
18.444632	2.091141	1.207716	465.316000
18.465494	2.093747	1.208870	465.816000
18.485704	2.096168	1.210130	466.316000
18.505527	2.098783	1.211563	466.816000
18.525056	2.101492	1.212834	467.316000
18.545806	2.104249	1.214095	467.817000
18.567232	2.107439	1.215312	468.316000
18.588105	2.110881	1.216362	468.816000
18.609509	2.114227	1.217625	469.316000
18.628788	2.117626	1.218813	469.817000
18.648758	2.120948	1.220003	470.317000
18.668760	2.124118	1.221209	470.816000
18.689093	2.127512	1.222379	471.317000
18.708181	2.130781	1.223503	471.816000
18.728376	2.133892	1.224551	472.316000
18.749367	2.137049	1.225707	472.816000
18.769118	2.140426	1.227014	473.316000
18.790025	2.143854	1.228225	473.816000
18.810922	2.147336	1.229479	474.316000
18.832352	2.150471	1.230938	474.816000
18.853528	2.153267	1.232406	475.316000
18.874409	2.156115	1.233918	475.816000
18.894667	2.159298	1.235458	476.316000
18.914975	2.162823	1.236992	476.816000
18.936530	2.166427	1.238468	477.316000
18.958440	2.169705	1.239893	477.816000
18.978977	2.172648	1.241246	478.316000
18.999477	2.175618	1.242563	478.816000
19.019515	2.178595	1.243884	479.316000
19.041531	2.181495	1.245144	479.816000
19.063178	2.184461	1.246531	480.316000
19.085267	2.187516	1.248009	480.816000
19.106745	2.190294	1.249544	481.316000
19.127498	2.192656	1.251161	481.816000
19.147433	2.195150	1.252620	482.316000
19.167060	2.197323	1.254036	482.816000
19.187668	2.199075	1.255238	483.316000
19.208219	2.201058	1.256701	483.816000
19.228678	2.202772	1.258269	484.316000
19.248996	2.204371	1.259934	484.816000
19.269534	2.205745	1.261594	485.316000
19.290003	2.206879	1.263345	485.816000
19.311343	2.207922	1.265098	486.316000
19.333385	2.208546	1.266664	486.817000
19.353932	2.209184	1.268205	487.316000
19.374383	2.209338	1.269999	487.816000
19.393906	2.209053	1.271729	488.316000
19.415164	2.208446	1.273467	488.816000
19.435150	2.207628	1.275143	489.316000
19.455886	2.206485	1.276930	489.816000
19.475964	2.204963	1.278777	490.316000
19.496108	2.203543	1.280697	490.816000
19.516499	2.202044	1.282531	491.317000
19.538563	2.200050	1.284148	491.816000
19.558618	2.197314	1.285861	492.316000
19.578730	2.194452	1.287592	492.816000
19.599674	2.191426	1.289446	493.316000
19.620729	2.188435	1.291024	493.816000
19.641223	2.185267	1.292653	494.316000
19.661482	2.181878	1.294433	494.816000
19.681048	2.178327	1.296403	495.316000
19.701700	2.174794	1.298396	495.816000
19.721821	2.171184	1.300224	496.316000
19.742891	2.166833	1.302044	496.816000
19.762416	2.162152	1.303943	497.316000
19.781488	2.157073	1.305789	497.816000
19.802119	2.151806	1.307614	498.316000
19.822087	2.146320	1.309436	498.816000
19.841756	2.140973	1.311231	499.316000
19.861913	2.135433	1.312956	499.816000
19.882670	2.129579	1.314822	500.316000
19.903845	2.123554	1.316687	500.816000
19.924696	2.117320	1.318813	501.317000
19.945352	2.110675	1.320939	501.816000
19.965231	2.103911	1.322998	502.316000
19.985485	2.096936	1.325006	502.816000
20.006209	2.089429	1.326943	503.317000
20.026698	2.081424	1.328879	503.816000
20.045806	2.073019	1.330753	504.316000
20.065800	2.064270	1.332698	504.816000
20.086319	2.055482	1.334800	505.316000
20.106697	2.046786	1.336914	505.816000
20.126736	2.037837	1.339192	506.316000
20.146745	2.028596	1.341403	506.816000
20.165471	2.019060	1.343331	507.316000
20.186318	2.009356	1.345227	507.816000
20.207814	1.999420	1.347393	508.316000
20.226975	1.989415	1.349672	508.816000
20.245319	1.979369	1.351852	509.316000
20.266050	1.969214	1.353876	509.816000
20.286174	1.958620	1.355949	510.316000
20.307418	1.947404	1.358114	510.816000
20.328655	1.935983	1.360495	511.316000
20.349555	1.924194	1.362795	511.816000
20.369176	1.912321	1.364925	512.316000
20.390384	1.900285	1.367032	512.816000
20.412291	1.887996	1.369082	513.316000
20.432304	1.875743	1.371162	513.816000
20.452299	1.863257	1.373325	514.316000
20.473198	1.850254	1.375362	514.816000
20.494078	1.836614	1.377581	515.316000
20.515556	1.822761	1.380021	515.816000
20.536650	1.808738	1.382315	516.316000
20.557311	1.794546	1.384616	516.816000
20.578137	1.780135	1.386892	517.316000
20.598538	1.765323	1.389205	517.817000
20.617817	1.750116	1.391478	518.316000
20.637457	1.734699	1.393755	518.817000
20.658253	1.718922	1.396036	519.316000
20.677851	1.703409	1.398474	519.816000
20.698558	1.687834	1.400910	520.316000
20.719283	1.672286	1.403377	520.816000
20.740378	1.656756	1.405852	521.316000
20.760025	1.641620	1.408364	521.816000
20.779946	1.626080	1.410634	522.316000
20.800537	1.610174	1.412937	522.816000
20.821026	1.593983	1.415403	523.316000
20.841423	1.577660	1.417937	523.816000
20.860384	1.561698	1.420418	524.316000
20.877888	1.545158	1.422913	524.816000
20.901940	1.528132	1.425428	525.316000
20.922131	1.511245	1.427807	525.816000
20.939572	1.493958	1.429972	526.316000
20.958617	1.476433	1.432265	526.816000
20.979737	1.458521	1.434607	527.316000
21.000355	1.440198	1.437036	527.816000
21.022116	1.421608	1.439373	528.316000
21.041123	1.402934	1.441720	528.816000
21.061415	1.383735	1.444144	529.316000
21.079942	1.364463	1.446699	529.816000
21.100031	1.344532	1.449254	530.316000
21.120944	1.323938	1.451604	530.816000
21.141772	1.302788	1.453908	531.316000
21.162021	1.280784	1.456303	531.816000
21.183327	1.257860	1.458704	532.317000
21.204676	1.234485	1.461024	532.816000
21.222817	1.211127	1.463500	533.317000
21.243280	1.187059	1.466118	533.816000
21.261764	1.162284	1.468420	534.316000
21.283304	1.137220	1.470746	534.816000
21.304105	1.111579	1.473011	535.316000
21.325693	1.085917	1.475261	535.816000
21.347424	1.059860	1.477513	536.317000
21.368995	1.033402	1.479789	536.816000
21.385772	1.006470	1.482085	537.317000
21.402588	0.978902	1.484218	537.816000
21.420835	0.951055	1.486236	538.316000
21.441745	0.923491	1.488284	538.816000
21.461079	0.895953	1.490476	539.316000
21.479762	0.868430	1.492462	539.816000
21.500941	0.840633	1.494431	540.316000
21.520039	0.812937	1.496223	540.816000
21.540220	0.784956	1.497991	541.316000
21.560150	0.757245	1.499591	541.816000
21.579659	0.729420	1.501330	542.316000
21.600085	0.702253	1.503028	542.816000
21.620927	0.675011	1.504813	543.316000
21.642690	0.647632	1.506366	543.816000
21.660161	0.620826	1.507718	544.316000
21.679819	0.594398	1.509131	544.816000
21.700001	0.567953	1.510591	545.316000
21.719015	0.541636	1.511881	545.816000
21.739127	0.516123	1.513064	546.316000
21.758789	0.491398	1.514077	546.816000
21.779358	0.466906	1.515077	547.316000
21.798816	0.442731	1.516056	547.816000
21.819341	0.419212	1.516784	548.316000
21.839958	0.396588	1.517369	548.816000
21.861690	0.374696	1.518016	549.316000
21.882439	0.353184	1.518367	549.816000
21.903065	0.332711	1.518814	550.316000
21.922863	0.313132	1.519210	550.817000
21.942545	0.294867	1.519519	551.316000
21.965845	0.277554	1.519876	551.816000
21.986831	0.260644	1.520169	552.316000
22.003165	0.244595	1.520315	552.816000
22.023146	0.230356	1.520538	553.316000
22.043134	0.217413	1.520762	553.816000
22.063249	0.205576	1.520881	554.316000
22.084325	0.195213	1.520842	554.816000
22.106153	0.185993	1.520791	555.316000
22.126671	0.177870	1.520858	555.816000
22.148325	0.170838	1.520946	556.316000
22.170047	0.165328	1.521107	556.816000
22.191155	0.161242	1.521370	557.317000
22.211597	0.157722	1.521567	557.816000
22.232683	0.155151	1.521610	558.316000
22.254305	0.153470	1.521581	558.816000
22.277435	0.152989	1.521444	559.316000
22.299222	0.153478	1.521473	559.816000
22.320535	0.154622	1.521637	560.316000
22.343710	0.156378	1.521778	560.816000
22.365787	0.158791	1.521852	561.316000
22.387338	0.162030	1.521930	561.816000
22.408478	0.165925	1.521985	562.316000
22.430411	0.170213	1.522013	562.816000
22.452898	0.174437	1.521956	563.316000
22.475448	0.179091	1.522054	563.816000
22.497449	0.183962	1.522127	564.316000
22.519984	0.189347	1.522185	564.816000
22.541795	0.194818	1.522119	565.316000
22.563344	0.200652	1.521940	565.816000
22.585037	0.206964	1.521935	566.316000
22.608817	0.213596	1.521927	566.816000
22.630036	0.220351	1.522118	567.317000
22.651889	0.227332	1.522164	567.816000
22.672735	0.234355	1.522067	568.316000
22.694112	0.241685	1.522012	568.816000
22.715529	0.249641	1.521906	569.316000
22.738010	0.258034	1.521796	569.816000
22.761968	0.266770	1.521891	570.316000
22.785391	0.275691	1.521971	570.816000
22.807587	0.285074	1.521791	571.316000
22.828625	0.295198	1.521544	571.816000
22.849475	0.305919	1.521405	572.316000
22.872159	0.317365	1.521409	572.816000
22.894482	0.329426	1.521402	573.316000
22.916890	0.342008	1.521346	573.816000
22.938536	0.355257	1.521159	574.316000
22.959513	0.369475	1.520992	574.816000
22.981392	0.384478	1.520954	575.316000
23.002959	0.399920	1.520843	575.816000
23.024295	0.415936	1.520710	576.316000
23.047183	0.432860	1.520486	576.816000
23.071964	0.450982	1.520356	577.316000
23.093845	0.470098	1.520262	577.816000
23.116159	0.489872	1.520142	578.316000
23.136586	0.510449	1.519998	578.816000
23.158070	0.531920	1.519758	579.316000
23.179390	0.554714	1.519422	579.816000
23.202411	0.578777	1.519074	580.316000
23.225131	0.603390	1.518840	580.816000
23.247632	0.628908	1.518696	581.316000
23.268811	0.655676	1.518704	581.816000
23.290143	0.683649	1.518550	582.316000
23.311069	0.712384	1.518379	582.816000
23.333280	0.742405	1.518233	583.316000
23.357061	0.773390	1.518153	583.816000
23.378806	0.805360	1.518132	584.316000
23.399746	0.838750	1.518015	584.816000
23.421710	0.873099	1.517862	585.316000
23.443442	0.908189	1.517639	585.816000
23.464682	0.944570	1.517514	586.316000
23.485703	0.981584	1.517451	586.816000
23.506805	1.019319	1.517361	587.316000
23.529939	1.057578	1.517257	587.816000
23.552092	1.096692	1.517122	588.316000
23.573780	1.136289	1.517159	588.816000
23.595306	1.176224	1.517363	589.316000
23.616663	1.216990	1.517764	589.816000
23.640110	1.258445	1.518116	590.316000
23.662125	1.300247	1.518489	590.816000
23.685376	1.342091	1.518870	591.316000
23.708246	1.383893	1.519214	591.816000
23.730225	1.426215	1.519449	592.316000
23.753491	1.469119	1.519823	592.817000
23.775002	1.511897	1.520306	593.316000
23.798519	1.554692	1.521045	593.816000
23.821485	1.597392	1.521819	594.316000
23.844914	1.640113	1.522607	594.816000
23.867697	1.682732	1.523500	595.316000
23.889679	1.725305	1.524347	595.816000
23.914185	1.767553	1.525178	596.316000
23.938373	1.809140	1.526091	596.816000
23.960693	1.850284	1.527203	597.316000
23.983096	1.891052	1.528390	597.816000
24.007843	1.931498	1.529669	598.316000
24.033513	1.971377	1.530957	598.816000
24.056301	2.010729	1.532122	599.316000
24.079059	2.049741	1.533395	599.816000
24.104565	2.088083	1.534653	600.316000
24.129135	2.125551	1.535903	600.816000
24.152271	2.161904	1.537215	601.316000
24.174115	2.197396	1.538638	601.816000
24.197134	2.232471	1.540109	602.316000
24.221732	2.267005	1.541628	602.816000
24.244114	2.300719	1.543231	603.316000
24.265447	2.333713	1.544831	603.816000
24.287944	2.365539	1.546469	604.317000
24.309193	2.396430	1.548122	604.816000
24.332116	2.426390	1.549785	605.317000
24.357688	2.455490	1.551320	605.816000
24.380112	2.483621	1.552902	606.316000
24.403830	2.510753	1.554382	606.816000
24.424423	2.537096	1.555886	607.316000
24.445469	2.563253	1.557488	607.816000
24.470637	2.588860	1.559116	608.316000
24.495018	2.613626	1.560715	608.816000
24.516970	2.637493	1.562481	609.316000
24.538548	2.660790	1.564184	609.817000
24.561217	2.683609	1.565722	610.316000
24.583392	2.705669	1.567479	610.816000
24.609610	2.727307	1.569151	611.316000
24.631992	2.748245	1.570725	611.816000
24.653242	2.768549	1.572421	612.316000
24.676764	2.788190	1.574135	612.816000
24.700598	2.807876	1.575866	613.316000
24.724424	2.827154	1.577683	613.816000
24.745027	2.845814	1.579574	614.316000
24.766747	2.863989	1.581416	614.816000
24.789227	2.881580	1.583131	615.316000
24.812250	2.898666	1.584912	615.816000
24.834940	2.915100	1.586780	616.316000
24.857160	2.931184	1.588617	616.816000
24.879329	2.946990	1.590544	617.316000
24.901305	2.962429	1.592472	617.816000
24.923206	2.977826	1.594147	618.316000
24.945633	2.992845	1.595844	618.816000
24.968184	3.007081	1.597377	619.316000
24.991397	3.020722	1.599003	619.816000
25.013583	3.034529	1.600775	620.316000
25.035550	3.047923	1.602599	620.816000
25.057162	3.061195	1.604319	621.316000
25.079312	3.074177	1.606001	621.816000
25.102504	3.086252	1.607620	622.316000
25.126308	3.098129	1.609327	622.816000
25.149573	3.110345	1.610969	623.316000
25.170353	3.122071	1.612589	623.816000
25.193372	3.133177	1.614313	624.316000
25.217380	3.144272	1.616111	624.816000
25.239221	3.155509	1.617961	625.316000
25.263345	3.166300	1.619630	625.816000
25.284375	3.176471	1.621400	626.316000
25.307659	3.186738	1.623239	626.816000
25.328700	3.196792	1.625056	627.316000
25.352305	3.206127	1.626780	627.816000
25.375260	3.215053	1.628539	628.316000
25.399829	3.224210	1.630337	628.816000
25.419554	3.233251	1.632037	629.316000
25.441357	3.241773	1.633560	629.816000
25.463153	3.250270	1.635124	630.316000
25.486807	3.258552	1.636840	630.816000
25.510300	3.267123	1.638506	631.316000
25.532867	3.275433	1.640419	631.816000
25.553141	3.283247	1.642317	632.316000
25.576060	3.290543	1.644105	632.816000
25.599596	3.297506	1.645750	633.316000
25.621117	3.304568	1.647408	633.816000
25.642120	3.311444	1.649179	634.316000
25.666635	3.318130	1.651056	634.816000
25.690030	3.324839	1.652946	635.316000
25.712448	3.331792	1.654710	635.816000
25.735074	3.338606	1.656348	636.316000
25.758825	3.344719	1.658049	636.816000
25.783396	3.350681	1.659760	637.316000
25.808050	3.356938	1.661493	637.816000
25.828636	3.363353	1.663243	638.316000
25.849931	3.368860	1.664966	638.816000
25.873352	3.373473	1.666720	639.316000
25.894461	3.378369	1.668636	639.816000
25.916287	3.383596	1.670642	640.316000
25.939224	3.388619	1.672459	640.816000
25.962927	3.392794	1.674294	641.316000
25.985840	3.396707	1.676280	641.816000
26.008791	3.400543	1.678298	642.316000
26.029506	3.404309	1.680308	642.816000
26.050242	3.407989	1.681971	643.316000
26.074121	3.411642	1.683741	643.816000
26.096798	3.415340	1.685569	644.316000
26.119304	3.418896	1.687416	644.816000
26.141431	3.422012	1.689186	645.316000
26.164639	3.424702	1.691008	645.816000
26.185620	3.427213	1.692764	646.316000
26.205991	3.430436	1.694557	646.816000
26.224127	3.433306	1.696360	647.316000
26.247564	3.435547	1.698166	647.816000
26.271860	3.437559	1.700106	648.316000
26.293857	3.439540	1.701903	648.816000
26.320131	3.441677	1.703562	649.317000
26.341520	3.443478	1.705346	649.816000
26.365292	3.444709	1.707032	650.316000
26.395703	3.445959	1.708755	650.816000
26.414672	3.447417	1.710760	651.316000
26.434296	3.448589	1.712831	651.816000
26.453709	3.449256	1.714893	652.316000
26.473124	3.449775	1.716870	652.816000
26.497628	3.450044	1.718770	653.316000
26.520925	3.449759	1.720652	653.816000
26.537820	3.449762	1.722411	654.316000
26.562920	3.450022	1.724135	654.816000
26.585129	3.449871	1.725895	655.316000
26.607770	3.449448	1.727877	655.816000
26.630173	3.448917	1.729955	656.316000
26.654581	3.448272	1.731995	656.816000
26.673497	3.447387	1.733830	657.316000
26.697507	3.446196	1.735670	657.816000
26.718448	3.444964	1.737577	658.316000
26.741220	3.443683	1.739339	658.816000
26.764260	3.442157	1.741105	659.316000
26.785269	3.440510	1.742957	659.816000
26.809744	3.438476	1.744868	660.316000
26.832739	3.435970	1.746794	660.816000
26.853144	3.433509	1.748653	661.316000
26.877929	3.430979	1.750452	661.816000
26.903316	3.428272	1.752285	662.316000
26.922190	3.425553	1.754167	662.816000
26.943214	3.422870	1.756180	663.316000
26.965564	3.419730	1.758192	663.816000
26.989404	3.416469	1.760118	664.316000
27.010633	3.413092	1.761906	664.816000
27.034787	3.409043	1.763675	665.316000
27.058331	3.405175	1.765643	665.816000
27.078680	3.401298	1.767675	666.316000
27.100639	3.396739	1.769646	666.816000
27.121847	3.392437	1.771618	667.316000
27.143941	3.387888	1.773597	667.816000
27.166544	3.383272	1.775510	668.316000
27.189477	3.378852	1.777515	668.816000
27.209263	3.374254	1.779711	669.316000
27.233193	3.369575	1.781858	669.816000
27.253691	3.364798	1.783938	670.317000
27.274296	3.359757	1.785858	670.816000
27.295533	3.354704	1.787922	671.316000
27.317348	3.349612	1.789942	671.816000
27.340365	3.343773	1.792055	672.316000
27.363040	3.337374	1.794121	672.817000
27.384673	3.331407	1.796060	673.316000
27.405867	3.325103	1.798020	673.817000
27.426868	3.318949	1.799959	674.316000
27.448384	3.312843	1.801800	674.816000
27.468679	3.306267	1.803708	675.316000
27.488975	3.299796	1.805754	675.817000
27.509186	3.293106	1.807739	676.316000
27.531407	3.286236	1.809779	676.816000
27.554613	3.279496	1.811714	677.317000
27.578095	3.272693	1.813664	677.816000
27.597049	3.265690	1.815751	678.317000
27.618359	3.258515	1.817973	678.816000
27.640779	3.251173	1.820031	679.316000
27.663237	3.244132	1.821871	679.816000
27.682897	3.236276	1.823695	680.316000
27.703239	3.228133	1.825507	680.817000
27.722704	3.220368	1.827408	681.316000
27.744018	3.212193	1.829263	681.816000
27.765027	3.203790	1.831208	682.316000
27.786681	3.195382	1.833210	682.816000
27.808033	3.186618	1.835283	683.316000
27.828931	3.178034	1.837355	683.817000
27.849708	3.169489	1.839254	684.316000
27.871421	3.161108	1.841084	684.816000
27.891929	3.152337	1.843066	685.316000
27.913837	3.143391	1.845103	685.816000
27.935483	3.134802	1.847189	686.316000
27.956466	3.125659	1.849213	686.816000
27.976851	3.116188	1.851194	687.316000
27.997196	3.106941	1.853153	687.816000
28.017563	3.097316	1.855154	688.316000
28.038211	3.087405	1.857119	688.816000
28.060234	3.077407	1.859061	689.316000
28.079563	3.067249	1.860946	689.816000
28.100105	3.057316	1.863010	690.316000
28.120704	3.046808	1.865074	690.816000
28.141396	3.036208	1.866986	691.316000
28.161502	3.025695	1.868948	691.816000
28.181010	3.014877	1.870896	692.316000
28.201364	3.003729	1.872876	692.816000
28.221996	2.992717	1.874927	693.316000
28.242474	2.981731	1.877007	693.817000
28.262645	2.971154	1.879026	694.316000
28.282498	2.960314	1.880848	694.816000
28.303130	2.949236	1.882750	695.316000
28.325742	2.938014	1.884828	695.816000
28.348806	2.926126	1.886906	696.316000
28.370741	2.914136	1.888983	696.816000
28.391475	2.902184	1.891061	697.316000
28.413052	2.889908	1.893104	697.816000
28.434254	2.877619	1.895220	698.316000
28.454825	2.864902	1.897060	698.816000
28.474448	2.851885	1.898721	699.316000
28.496737	2.838598	1.900327	699.816000
28.517533	2.825091	1.902098	700.316000
28.539498	2.811908	1.904176	700.816000
28.561548	2.798151	1.906193	701.316000
28.581285	2.784228	1.908037	701.816000
28.602085	2.770353	1.909786	702.316000
28.623241	2.756325	1.911608	702.816000
28.644955	2.742344	1.913757	703.316000
28.665307	2.728074	1.916026	703.816000
28.685496	2.713879	1.918048	704.316000
28.707261	2.699500	1.919848	704.816000
28.729591	2.685173	1.921609	705.316000
28.750062	2.670737	1.923499	705.816000
28.771674	2.656118	1.925440	706.316000
28.794096	2.641716	1.927286	706.816000
28.815231	2.626860	1.929095	707.316000
28.836102	2.612081	1.930888	707.816000
28.858264	2.597229	1.932613	708.317000
28.878380	2.582158	1.934361	708.816000
28.899451	2.566979	1.936177	709.316000
28.920840	2.551634	1.937991	709.816000
28.940127	2.536324	1.939833	710.316000
28.961631	2.520614	1.941434	710.816000
28.984672	2.505013	1.943046	711.316000
29.007641	2.489621	1.944648	711.816000
29.028993	2.474082	1.946167	712.316000
29.050347	2.458706	1.947557	712.816000
29.070097	2.443103	1.949028	713.316000
29.091798	2.427808	1.950624	713.816000
29.114179	2.412393	1.952307	714.316000
29.134168	2.396628	1.953908	714.816000
29.155236	2.381016	1.955462	715.316000
29.177600	2.365164	1.956903	715.816000
29.199152	2.349713	1.958245	716.316000
29.221468	2.334212	1.959492	716.816000
29.240782	2.318810	1.960776	717.316000
29.261471	2.303688	1.962102	717.816000
29.281188	2.288605	1.963323	718.317000
29.301091	2.273864	1.964593	718.816000
29.321530	2.259200	1.966046	719.316000
29.341835	2.244401	1.967380	719.816000
29.361419	2.230149	1.968615	720.316000
29.382440	2.216075	1.969758	720.816000
29.402870	2.201810	1.970881	721.317000
29.424170	2.187783	1.971935	721.816000
29.445108	2.174438	1.973142	722.316000
29.466805	2.161559	1.974263	722.816000
29.489038	2.148580	1.975344	723.316000
29.510568	2.135752	1.976192	723.817000
29.531431	2.122605	1.977053	724.316000
29.550927	2.110130	1.977930	724.816000
29.572865	2.098213	1.978997	725.316000
29.594472	2.086022	1.980037	725.816000
29.615318	2.073798	1.980940	726.316000
29.635764	2.062059	1.981899	726.816000
29.657543	2.050736	1.982814	727.316000
29.678479	2.039458	1.983581	727.816000
29.699871	2.028294	1.984263	728.316000
29.721604	2.017681	1.984847	728.816000
29.742355	2.007250	1.985682	729.316000
29.763097	1.996952	1.986558	729.816000
29.785022	1.987284	1.987271	730.316000
29.805718	1.978059	1.987973	730.816000
29.826725	1.968608	1.988735	731.316000
29.848953	1.959377	1.989282	731.816000
29.871472	1.950901	1.989845	732.316000
29.895184	1.942755	1.990470	732.816000
29.916400	1.934732	1.991134	733.316000
29.937863	1.926907	1.991868	733.816000
29.960614	1.919662	1.992697	734.316000
29.981963	1.912991	1.993458	734.816000
30.003093	1.906302	1.994228	735.316000
30.025102	1.899469	1.994805	735.816000
30.046086	1.893188	1.995324	736.316000
30.068556	1.887618	1.995780	736.817000
30.090676	1.882145	1.996260	737.317000
30.110962	1.877229	1.996708	737.816000
30.129792	1.872821	1.997090	738.316000
30.151178	1.869191	1.997507	738.816000
30.172315	1.865494	1.997849	739.316000
30.194025	1.862206	1.998243	739.816000
30.215597	1.859692	1.998636	740.316000
30.236538	1.857798	1.999009	740.816000
30.258932	1.855757	1.999372	741.316000
30.281603	1.853902	1.999653	741.816000
30.302670	1.852665	1.999839	742.317000
30.322372	1.851736	2.000198	742.816000
30.345157	1.851048	2.000471	743.316000
30.365167	1.851061	2.000576	743.816000
30.386915	1.851587	2.000867	744.316000
30.407404	1.852755	2.001208	744.816000
30.429706	1.854479	2.001556	745.316000
30.450135	1.856133	2.001797	745.816000
30.471728	1.858109	2.001907	746.316000
30.492181	1.860876	2.002012	746.816000
30.514098	1.864939	2.002275	747.317000
30.535254	1.869180	2.002497	747.816000
30.555213	1.873126	2.002810	748.316000
30.575999	1.877241	2.003065	748.816000
30.597639	1.881860	2.003274	749.317000
30.618632	1.887294	2.003502	749.816000
30.639216	1.892800	2.003748	750.316000
30.663910	1.899042	2.003965	750.816000
30.683612	1.905215	2.004141	751.316000
30.704977	1.911328	2.004329	751.816000
30.727115	1.917900	2.004645	752.316000
30.746454	1.925162	2.004894	752.816000
30.768351	1.933381	2.005028	753.316000
30.789682	1.942281	2.005188	753.816000
30.810073	1.951740	2.005497	754.316000
30.837161	1.961338	2.005810	754.817000
30.859758	1.970843	2.005904	755.316000
30.879996	1.980504	2.006007	755.816000
30.900893	1.991207	2.006224	756.316000
30.921379	2.003156	2.006347	756.817000
30.943671	2.016121	2.006356	757.316000
30.963931	2.029462	2.006526	757.816000
30.977690	2.042444	2.006762	758.316000
30.997967	2.055235	2.007183	758.816000
31.019113	2.067935	2.007493	759.317000
31.038471	2.081032	2.007761	759.816000
31.061294	2.094680	2.008001	760.316000
31.080024	2.108845	2.008283	760.816000
31.101259	2.122962	2.008615	761.317000
31.122921	2.137123	2.008789	761.816000
31.146326	2.151798	2.009161	762.316000
31.169537	2.167486	2.009491	762.816000
31.198863	2.184039	2.009844	763.316000
31.210987	2.201483	2.010214	763.817000
31.229094	2.219349	2.010549	764.316000
31.247939	2.237027	2.010816	764.816000
31.268469	2.254660	2.011138	765.316000
31.290858	2.272453	2.011523	765.817000
31.307827	2.290555	2.011922	766.316000
31.333151	2.309256	2.012430	766.816000
31.359760	2.328760	2.013032	767.316000
31.376120	2.348484	2.013691	767.816000
31.399159	2.368469	2.014468	768.317000
31.419481	2.388289	2.015087	768.816000
31.441404	2.408411	2.015615	769.316000
31.462086	2.429190	2.016014	769.816000
31.489705	2.450793	2.016405	770.316000
31.505251	2.473068	2.016857	770.816000
31.525558	2.495904	2.017428	771.316000
31.547369	2.518934	2.018119	771.816000
31.569134	2.541802	2.018824	772.317000
31.590260	2.564299	2.019631	772.816000
31.614022	2.586478	2.020410	773.316000
31.636332	2.608763	2.021329	773.816000
31.650904	2.631830	2.022329	774.316000
31.673298	2.655538	2.023269	774.816000
31.692380	2.679160	2.024193	775.316000
31.712219	2.702899	2.025014	775.816000
31.732257	2.726912	2.025899	776.316000
31.757871	2.750586	2.026806	776.817000
31.779920	2.774115	2.027881	777.316000
31.796622	2.797011	2.028886	777.816000
31.821124	2.820050	2.029781	778.316000
31.842389	2.843225	2.030715	778.816000
31.866711	2.866254	2.031787	779.316000
31.889876	2.889826	2.032832	779.816000
31.914079	2.913967	2.033923	780.316000
31.935494	2.938488	2.035129	780.816000
31.954150	2.963150	2.036359	781.316000
31.977502	2.987493	2.037634	781.816000
32.000400	3.011563	2.038954	782.316000
32.019095	3.035201	2.040327	782.816000
32.041680	3.058777	2.041685	783.316000
32.064472	3.081864	2.043002	783.816000
32.082513	3.104633	2.044436	784.316000
32.101839	3.127205	2.045851	784.817000
32.123669	3.149689	2.047061	785.316000
32.144314	3.171655	2.048389	785.817000
32.163735	3.193622	2.049900	786.316000
32.186081	3.215231	2.051542	786.816000
32.209674	3.236150	2.053078	787.316000
32.230292	3.256544	2.054684	787.816000
32.249532	3.276448	2.056075	788.316000
32.270516	3.295388	2.057511	788.816000
32.291369	3.314169	2.059077	789.316000
32.314465	3.333372	2.060675	789.816000
32.338743	3.352856	2.062192	790.316000
32.358821	3.372192	2.063797	790.816000
32.377951	3.391172	2.065460	791.316000
32.400662	3.409431	2.067169	791.816000
32.422702	3.427136	2.068658	792.316000
32.444783	3.444372	2.070153	792.816000
32.465526	3.460616	2.071827	793.316000
32.487218	3.476397	2.073542	793.816000
32.509139	3.492180	2.075167	794.316000
32.533049	3.507905	2.076894	794.816000
32.551744	3.523409	2.078738	795.316000
32.574539	3.538474	2.080549	795.817000
32.596379	3.553399	2.082365	796.316000
32.619589	3.568133	2.084058	796.816000
32.640567	3.582626	2.085611	797.316000
32.662997	3.596338	2.087155	797.817000
32.685511	3.609549	2.089034	798.316000
32.707859	3.622544	2.091012	798.816000
32.728971	3.635036	2.092906	799.316000
32.751560	3.647118	2.094649	799.816000
32.773117	3.658903	2.096421	800.316000
32.794302	3.670631	2.098288	800.816000
32.816248	3.682330	2.100131	801.316000
32.839005	3.693702	2.101897	801.816000
32.862735	3.704587	2.103654	802.317000
32.885151	3.715022	2.105447	802.816000
32.907419	3.724744	2.107273	803.316000
32.929815	3.734056	2.109139	803.817000
32.952171	3.743207	2.111119	804.316000
32.974863	3.752303	2.112900	804.816000
32.998987	3.761382	2.114677	805.316000
33.023147	3.770510	2.116326	805.817000
33.045018	3.779686	2.118013	806.316000
33.066995	3.788270	2.119764	806.816000
33.090054	3.796270	2.121603	807.316000
33.113788	3.803492	2.123566	807.816000
33.134914	3.810544	2.125461	808.316000
33.155196	3.817443	2.127243	808.816000
33.177565	3.824710	2.129133	809.316000
33.200394	3.831871	2.130828	809.816000
33.222913	3.839035	2.132644	810.316000
33.245367	3.845645	2.134554	810.816000
33.267434	3.851401	2.136530	811.317000
33.289736	3.856693	2.138241	811.816000
33.313531	3.862009	2.139963	812.316000
33.335563	3.867974	2.141540	812.816000
33.359371	3.874195	2.143249	813.316000
33.383591	3.880165	2.145163	813.816000
33.407657	3.885350	2.147057	814.316000
33.429890	3.889914	2.148872	814.817000
33.451385	3.894214	2.150602	815.316000
33.473618	3.898548	2.152457	815.816000
33.497806	3.903466	2.154196	816.316000
33.522940	3.908285	2.155985	816.816000
33.545563	3.912356	2.157881	817.316000
33.567081	3.915835	2.159848	817.817000
33.589847	3.919087	2.161699	818.316000
33.611580	3.922767	2.163488	818.817000
33.634492	3.927134	2.165410	819.316000
33.657049	3.931373	2.167365	819.816000
33.679337	3.935081	2.169214	820.316000
33.703302	3.938052	2.171141	820.816000
33.725314	3.940978	2.173004	821.316000
33.746680	3.944498	2.174812	821.816000
33.768093	3.948005	2.176665	822.316000
33.792230	3.951216	2.178515	822.816000
33.815114	3.953848	2.180257	823.316000
33.837445	3.956031	2.182028	823.816000
33.859427	3.957834	2.183885	824.316000
33.883414	3.959857	2.185733	824.816000
33.908063	3.961986	2.187500	825.316000
33.932205	3.963757	2.189178	825.816000
33.954556	3.965050	2.190903	826.316000
33.977108	3.965942	2.192791	826.817000
34.000852	3.967008	2.194645	827.316000
34.026585	3.968181	2.196361	827.817000
34.048486	3.969075	2.198176	828.316000
34.071641	3.969477	2.199872	828.816000
34.094153	3.969640	2.201524	829.316000
34.116186	3.969791	2.203260	829.816000
34.139392	3.970439	2.205108	830.316000
34.163870	3.970890	2.207065	830.816000
34.185623	3.971120	2.209017	831.316000
34.208672	3.971224	2.210933	831.816000
34.229668	3.971297	2.212862	832.316000
34.250852	3.970923	2.214907	832.816000
34.273301	3.970377	2.216918	833.316000
34.296904	3.970145	2.218806	833.816000
34.318794	3.969956	2.220568	834.316000
34.341065	3.968853	2.222138	834.817000
34.363215	3.967602	2.223955	835.316000
34.384972	3.966951	2.225873	835.817000
34.406776	3.966162	2.227743	836.316000
34.430525	3.965043	2.229384	836.817000
34.453715	3.964149	2.231057	837.316000
34.476104	3.963867	2.232722	837.816000
34.498039	3.963129	2.234505	838.316000
34.520462	3.961987	2.236160	838.817000
34.543459	3.961122	2.237918	839.316000
34.567102	3.959898	2.239603	839.816000
34.591022	3.958178	2.241222	840.316000
34.613538	3.956768	2.242830	840.816000
34.635767	3.955760	2.244484	841.316000
34.657320	3.954602	2.246427	841.816000
34.679578	3.952800	2.248172	842.316000
34.701648	3.950972	2.249938	842.816000
34.724111	3.949793	2.251698	843.316000
34.746111	3.947442	2.253399	843.816000
34.768506	3.944569	2.255103	844.316000
34.791415	3.942287	2.256914	844.816000
34.813156	3.940331	2.258561	845.316000
34.835608	3.937668	2.260182	845.816000
34.859487	3.935084	2.261951	846.316000
34.882384	3.932513	2.263732	846.816000
34.904362	3.929768	2.265692	847.316000
34.926681	3.927034	2.267588	847.817000
34.948430	3.924607	2.269316	848.316000
34.973181	3.921605	2.270918	848.816000
34.996057	3.918641	2.272624	849.316000
35.017377	3.916026	2.274325	849.817000
35.039669	3.913154	2.276066	850.316000
35.061371	3.910773	2.277803	850.816000
35.084241	3.908462	2.279543	851.316000
35.107098	3.905482	2.281165	851.816000
35.130519	3.901991	2.282835	852.316000
35.153382	3.899236	2.284608	852.816000
35.175338	3.896560	2.286425	853.316000
35.196555	3.893348	2.288197	853.816000
35.218012	3.890338	2.289937	854.317000
35.240437	3.886801	2.291608	854.816000
35.263126	3.883127	2.293318	855.316000
35.286173	3.879608	2.295130	855.817000
35.307375	3.876202	2.296978	856.316000
35.328518	3.872775	2.298615	856.817000
35.352499	3.868848	2.300198	857.316000
35.373690	3.864719	2.301861	857.816000
35.397299	3.860276	2.303448	858.316000
35.419027	3.855866	2.305006	858.816000
35.443329	3.851618	2.306630	859.316000
35.468157	3.847101	2.308518	859.816000
35.487015	3.842555	2.310369	860.316000
35.508183	3.837458	2.312274	860.816000
35.528485	3.832724	2.314104	861.316000
35.548638	3.827547	2.315871	861.816000
35.571838	3.822471	2.317585	862.316000
35.593681	3.816917	2.319266	862.816000
35.617843	3.811904	2.321012	863.316000
35.639078	3.807069	2.322743	863.816000
35.659391	3.802368	2.324517	864.316000
35.682424	3.797583	2.326161	864.816000
35.704196	3.792447	2.327708	865.316000
35.723853	3.786407	2.329188	865.817000
35.747731	3.780117	2.330977	866.316000
35.773813	3.773581	2.332807	866.817000
35.791270	3.766814	2.334451	867.316000
35.809165	3.760863	2.336100	867.816000
35.829319	3.755224	2.337876	868.316000
35.851728	3.750207	2.339473	868.816000
35.872052	3.745015	2.341029	869.316000
35.896679	3.740150	2.342473	869.816000
35.924125	3.734658	2.343978	870.316000
35.941784	3.729068	2.345659	870.817000
35.967892	3.722852	2.347375	871.316000
35.989997	3.716774	2.348912	871.816000
36.005876	3.709935	2.350623	872.316000
36.025246	3.703207	2.352183	872.816000
36.045316	3.696277	2.353962	873.317000
36.067880	3.690066	2.355685	873.816000
36.083878	3.684475	2.357477	874.316000
36.108680	3.678748	2.359261	874.816000
36.129322	3.673375	2.360996	875.316000
36.150217	3.667386	2.362596	875.816000
36.170701	3.661518	2.364145	876.316000
36.193195	3.655290	2.365775	876.816000
36.217067	3.649088	2.367410	877.316000
36.244176	3.642976	2.369005	877.816000
36.273417	3.636907	2.370557	878.316000
36.281609	3.630275	2.372179	878.816000
36.310484	3.623200	2.373961	879.316000
36.338299	3.616626	2.375719	879.817000
36.355931	3.609358	2.377453	880.316000
36.376310	3.602846	2.379254	880.816000
36.401639	3.596035	2.381100	881.316000
36.424465	3.589359	2.382988	881.816000
36.448747	3.582793	2.384625	882.316000
36.470775	3.575329	2.386125	882.816000
36.492174	3.568207	2.387745	883.316000
36.512973	3.560667	2.389367	883.816000
36.536412	3.553469	2.390866	884.316000
36.558952	3.547326	2.392378	884.816000
36.580509	3.540805	2.393937	885.317000
36.601132	3.534430	2.395585	885.816000
36.616931	3.527977	2.397204	886.317000
36.642572	3.521091	2.398837	886.816000
36.657223	3.513948	2.400508	887.316000
36.677227	3.505988	2.402314	887.816000
36.698966	3.498479	2.404233	888.316000
36.723495	3.490891	2.406184	888.816000
36.741962	3.482390	2.407930	889.316000
36.766893	3.474363	2.409582	889.816000
36.784543	3.466633	2.411215	890.316000
36.805626	3.458117	2.412808	890.816000
36.832024	3.450138	2.414226	891.317000
36.853180	3.442213	2.415700	891.816000
36.872326	3.433864	2.417218	892.316000
36.894753	3.425735	2.418825	892.816000
36.917254	3.416804	2.420573	893.316000
36.939507	3.407363	2.422360	893.816000
36.960016	3.397607	2.424086	894.316000
36.982171	3.388459	2.425649	894.816000
37.008700	3.379638	2.427086	895.316000
37.028174	3.370224	2.428764	895.816000
37.049178	3.361539	2.430556	896.317000
37.073753	3.352581	2.432327	896.816000
37.096154	3.344061	2.433945	897.316000
37.118439	3.335236	2.435671	897.816000
37.144752	3.325667	2.437335	898.316000
37.160459	3.316618	2.439013	898.817000
37.184492	3.306900	2.440708	899.316000
37.205181	3.297939	2.442586	899.817000
37.223276	3.288964	2.444292	900.316000
37.246594	3.279773	2.445941	900.816000
37.268670	3.271781	2.447680	901.316000
37.288448	3.263504	2.449460	901.816000
37.313596	3.255630	2.451141	902.316000
37.337294	3.247522	2.452705	902.816000
37.356586	3.238822	2.454415	903.316000
37.376774	3.231463	2.456220	903.816000
37.399332	3.224119	2.458051	904.316000
37.419743	3.217617	2.459837	904.816000
37.443466	3.211085	2.461665	905.316000
37.462073	3.202908	2.463481	905.816000
37.484589	3.195088	2.465374	906.316000
37.508619	3.186513	2.467047	906.816000
37.529161	3.177834	2.468728	907.316000
37.550484	3.169715	2.470514	907.816000
37.571649	3.160618	2.472205	908.316000
37.593606	3.152186	2.473930	908.816000
37.614725	3.143723	2.475618	909.316000
37.636985	3.133873	2.477117	909.816000
37.659905	3.123921	2.478741	910.316000
37.683398	3.112769	2.480405	910.816000
37.706035	3.101797	2.482142	911.316000
37.726415	3.091694	2.483986	911.816000
37.748117	3.081896	2.485554	912.317000
37.769940	3.075223	2.487317	912.816000
37.793203	3.068330	2.489279	913.316000
37.813787	3.061830	2.491307	913.816000
37.835127	3.055308	2.493210	914.316000
37.858887	3.048183	2.495066	914.816000
37.879076	3.041017	2.496858	915.316000
37.899863	3.032621	2.498570	915.816000
37.921237	3.024252	2.500198	916.317000
37.943395	3.015103	2.501703	916.817000
37.965238	3.006391	2.503262	917.316000
37.986647	2.996887	2.504848	917.816000
38.009717	2.988025	2.506577	918.316000
38.030991	2.978608	2.508180	918.816000
38.053897	2.970351	2.509929	919.316000
38.076049	2.961403	2.511818	919.817000
38.095916	2.952815	2.513673	920.316000
38.119086	2.943933	2.515402	920.816000
38.139131	2.934791	2.517212	921.316000
38.159128	2.924945	2.519160	921.817000
38.180004	2.915674	2.521103	922.316000
38.200510	2.906297	2.522859	922.816000
38.219987	2.897592	2.524677	923.317000
38.241105	2.889233	2.526444	923.816000
38.261547	2.881338	2.528073	924.317000
38.283144	2.872392	2.529683	924.816000
38.305545	2.862988	2.531420	925.316000
38.326027	2.852566	2.533287	925.816000
38.346773	2.842069	2.534999	926.317000
38.369821	2.831889	2.536733	926.816000
38.391569	2.821189	2.538391	927.316000
38.412473	2.811320	2.540106	927.816000
38.433719	2.801484	2.541895	928.316000
38.455520	2.791947	2.543783	928.816000
38.479290	2.781788	2.545663	929.316000
38.502733	2.773189	2.547514	929.816000
38.524321	2.764556	2.549406	930.316000
38.545222	2.756015	2.551181	930.816000
38.568955	2.746920	2.552972	931.316000
38.591381	2.738366	2.554862	931.817000
38.613037	2.729084	2.556894	932.316000
38.631850	2.720175	2.558629	932.816000
38.651996	2.710982	2.560409	933.316000
38.673386	2.703238	2.562171	933.816000
38.695083	2.695492	2.564085	934.316000
38.717486	2.688371	2.566113	934.816000
38.738508	2.680509	2.568051	935.316000
38.760675	2.672933	2.569985	935.816000
38.783531	2.664364	2.571790	936.316000
38.805651	2.656086	2.573679	936.816000
38.826672	2.646980	2.575645	937.316000
38.847960	2.638462	2.577509	937.816000
38.872738	2.628967	2.579431	938.316000
38.896073	2.620475	2.581194	938.816000
38.917493	2.612036	2.582890	939.316000
38.938689	2.604696	2.584794	939.816000
38.960949	2.597569	2.586766	940.316000
38.983468	2.591716	2.588714	940.817000
39.006546	2.585679	2.590792	941.316000
39.030036	2.580509	2.593009	941.817000
39.052774	2.574853	2.595138	942.316000
39.075552	2.569798	2.597112	942.817000
39.096909	2.563894	2.599210	943.316000
39.118425	2.558134	2.601317	943.816000
39.139427	2.551320	2.603315	944.316000
39.162777	2.545034	2.605342	944.816000
39.184113	2.538116	2.607405	945.316000
39.205502	2.531848	2.609504	945.816000
39.227759	2.525638	2.611636	946.316000
39.250150	2.520464	2.613689	946.816000
39.272476	2.514851	2.615814	947.316000
39.293348	2.509783	2.617950	947.817000
39.315563	2.503999	2.619785	948.316000
39.338434	2.498333	2.621677	948.816000
39.362802	2.492031	2.623669	949.316000
39.385037	2.486417	2.625716	949.817000
39.405062	2.480693	2.627840	950.316000
39.427458	2.476176	2.630031	950.816000
39.449801	2.471460	2.632125	951.316000
39.471301	2.467081	2.634378	951.816000
39.492450	2.461786	2.636688	952.316000
39.514426	2.457016	2.638927	952.816000
39.537042	2.451760	2.641009	953.316000
39.558560	2.447150	2.643155	953.816000
39.580067	2.441276	2.645372	954.317000
39.600320	2.436004	2.647821	954.816000
39.622252	2.430541	2.650118	955.316000
39.645465	2.424886	2.652276	955.816000
39.667889	2.419821	2.654350	956.316000
39.689328	2.414112	2.656516	956.816000
39.711605	2.408968	2.658800	957.317000
39.734317	2.403168	2.661092	957.816000
39.756622	2.398036	2.663601	958.316000
39.777976	2.392564	2.666185	958.816000
39.799741	2.387639	2.668649	959.316000
39.821671	2.382745	2.670953	959.816000
39.843429	2.377508	2.673080	960.316000
39.864798	2.372697	2.675251	960.816000
39.886756	2.366551	2.677659	961.316000
39.908725	2.361756	2.680161	961.816000
39.929474	2.356395	2.682564	962.316000
39.950797	2.351244	2.685014	962.816000
39.971960	2.346135	2.687418	963.316000
39.993384	2.339849	2.689719	963.816000
40.015490	2.334356	2.692108	964.316000
40.037398	2.327475	2.694475	964.816000
40.059113	2.321077	2.696997	965.317000
40.080352	2.314990	2.699528	965.816000
40.101561	2.308347	2.701910	966.316000
40.124353	2.302535	2.704375	966.816000
40.146145	2.295387	2.706850	967.317000
40.166261	2.288508	2.709432	967.816000
40.186878	2.281975	2.711980	968.317000
40.208054	2.274826	2.714675	968.816000
40.231128	2.269248	2.717229	969.316000
40.251500	2.262270	2.719752	969.816000
40.271998	2.255177	2.722384	970.316000
40.293334	2.247832	2.725133	970.816000
40.314759	2.239671	2.727755	971.316000
40.337047	2.232859	2.730356	971.817000
40.358592	2.225880	2.733077	972.316000
40.379367	2.219613	2.735743	972.816000
40.401619	2.213005	2.738364	973.316000
40.424770	2.205728	2.740936	973.816000
40.445562	2.199215	2.743615	974.316000
40.467091	2.191857	2.746447	974.816000
40.489674	2.185126	2.749051	975.316000
40.511844	2.177801	2.751611	975.816000
40.534976	2.170702	2.754307	976.317000
40.557971	2.163492	2.757125	976.816000
40.581131	2.155739	2.759962	977.316000
40.600620	2.148629	2.762685	977.816000
40.621458	2.140634	2.765530	978.317000
40.646350	2.133632	2.768347	978.816000
40.669719	2.125778	2.771134	979.316000
40.688002	2.118542	2.774126	979.816000
40.708497	2.111212	2.777170	980.316000
40.731998	2.103841	2.780222	980.816000
40.751474	2.096447	2.783285	981.316000
40.780917	2.088699	2.786202	981.816000
40.800684	2.081671	2.789142	982.316000
40.825024	2.072847	2.792248	982.817000
40.840929	2.065004	2.795502	983.316000
40.867780	2.057032	2.798618	983.816000
40.891735	2.049085	2.801651	984.316000
40.913264	2.041080	2.804699	984.816000
40.934792	2.031973	2.807714	985.316000
40.955460	2.023697	2.810881	985.816000
40.969876	2.014500	2.813957	986.317000
40.995611	2.005272	2.816998	986.816000
41.012957	1.994557	2.820089	987.317000
41.038816	1.984525	2.823268	987.816000
41.061020	1.973974	2.826376	988.316000
41.085651	1.963666	2.829570	988.817000
41.107830	1.953601	2.832774	989.316000
41.131330	1.943756	2.835727	989.816000
41.153660	1.933853	2.838759	990.316000
41.173359	1.923562	2.842117	990.816000
41.197713	1.913757	2.845458	991.316000
41.221588	1.903244	2.848718	991.816000
41.243951	1.893599	2.852034	992.316000
41.262440	1.882984	2.855309	992.817000
41.284382	1.872926	2.858577	993.316000
41.305414	1.861790	2.861753	993.816000
41.326374	1.850886	2.864846	994.316000
41.348685	1.839324	2.867833	994.816000
41.365720	1.828629	2.871087	995.316000
41.390588	1.816969	2.874406	995.816000
41.412915	1.805765	2.877558	996.316000
41.433832	1.794259	2.880729	996.816000
41.451828	1.783228	2.883768	997.316000
41.480273	1.771344	2.886654	997.816000
41.497592	1.759433	2.889464	998.316000
41.518607	1.747296	2.892512	998.816000
41.543933	1.735464	2.895540	999.316000
41.563807	1.723879	2.898672	999.816000
41.587538	1.711808	2.901994	1000.316000
41.613846	1.699375	2.905098	1000.816000
41.639737	1.685650	2.908192	1001.316000
41.658411	1.671634	2.911349	1001.816000
41.680511	1.656384	2.914319	1002.316000
41.700638	1.641034	2.917189	1002.817000
41.717165	1.625172	2.920258	1003.316000
41.741181	1.609343	2.923287	1003.816000
41.762053	1.593469	2.926138	1004.316000
41.786238	1.576787	2.928945	1004.816000
41.805506	1.560512	2.931796	1005.316000
41.821628	1.543776	2.934568	1005.816000
41.842636	1.527016	2.937218	1006.316000
41.860663	1.509961	2.939915	1006.816000
41.884946	1.493006	2.942621	1007.316000
41.906469	1.476093	2.945132	1007.816000
41.929094	1.459113	2.947595	1008.316000
41.954687	1.441787	2.950149	1008.816000
41.980246	1.423851	2.952455	1009.316000
41.998446	1.405316	2.954671	1009.816000
42.020955	1.386049	2.956943	1010.316000
42.044720	1.366001	2.959248	1010.816000
42.069171	1.346824	2.961597	1011.316000
42.091977	1.327589	2.963867	1011.816000
42.116103	1.307823	2.966072	1012.316000
42.129556	1.288390	2.968276	1012.817000
42.164965	1.268534	2.970479	1013.316000
42.186659	1.248989	2.972666	1013.816000
42.208302	1.228784	2.974904	1014.317000
42.231715	1.208184	2.977092	1014.816000
42.251132	1.187754	2.979186	1015.316000
42.272812	1.166334	2.981235	1015.816000
42.294797	1.145540	2.983236	1016.316000
42.320526	1.125080	2.985092	1016.816000
42.341110	1.104532	2.986913	1017.316000
42.363058	1.084333	2.988863	1017.816000
42.380074	1.063759	2.990796	1018.317000
42.406541	1.043132	2.992769	1018.816000
42.431202	1.022803	2.994528	1019.316000
42.439747	1.002698	2.996034	1019.816000
42.460701	0.983220	2.997553	1020.316000
42.486288	0.963731	2.998959	1020.816000
42.505615	0.944070	3.000143	1021.316000
42.527402	0.925115	3.001340	1021.816000
42.548709	0.906149	3.002693	1022.316000
42.579654	0.887583	3.004055	1022.816000
42.595873	0.869283	3.005143	1023.316000
42.612091	0.850386	3.006281	1023.816000
42.634697	0.832414	3.007450	1024.316000
42.658580	0.814159	3.008477	1024.816000
42.682855	0.796037	3.009200	1025.316000
42.701843	0.778373	3.010001	1025.816000
42.727302	0.760440	3.010833	1026.317000
42.748445	0.743137	3.011729	1026.816000
42.769409	0.726209	3.012442	1027.316000
42.788296	0.709452	3.013085	1027.816000
42.810454	0.692925	3.013956	1028.317000
42.833288	0.676485	3.014750	1028.816000
42.858695	0.660667	3.015395	1029.316000
42.880716	0.645335	3.015956	1029.816000
42.900595	0.630221	3.016596	1030.316000
42.922769	0.615280	3.017223	1030.816000
42.943018	0.600516	3.017807	1031.316000
42.969342	0.586454	3.018435	1031.816000
42.989957	0.572558	3.018990	1032.316000
43.010844	0.558708	3.019379	1032.816000
43.044057	0.545630	3.019890	1033.316000
43.067842	0.532798	3.020364	1033.816000
43.084405	0.519883	3.020632	1034.316000
43.098447	0.507362	3.020737	1034.816000
43.121140	0.495484	3.020902	1035.316000
43.144403	0.484489	3.020929	1035.816000
43.167659	0.474586	3.020989	1036.317000
43.189752	0.464655	3.021070	1036.816000
43.209628	0.455125	3.021073	1037.316000
43.227606	0.445994	3.021140	1037.816000
43.245106	0.437232	3.021288	1038.316000
43.267419	0.428922	3.021405	1038.816000
43.290767	0.421030	3.021665	1039.316000
43.313168	0.413961	3.021888	1039.816000
43.335971	0.407168	3.022104	1040.316000
43.360788	0.400563	3.022304	1040.817000
43.381147	0.394274	3.022471	1041.316000
43.405444	0.387963	3.022614	1041.816000
43.425677	0.381723	3.022699	1042.316000
43.449047	0.376088	3.022754	1042.816000
43.470271	0.370966	3.022825	1043.316000
43.491644	0.365806	3.022858	1043.817000
43.513193	0.361189	3.022795	1044.316000
43.533681	0.357009	3.022700	1044.817000
43.554357	0.353080	3.022756	1045.316000
43.578986	0.349465	3.022822	1045.816000
43.603354	0.346449	3.022806	1046.316000
43.622452	0.343539	3.022679	1046.816000
43.645633	0.340560	3.022482	1047.316000
43.666093	0.337938	3.022493	1047.816000
43.686634	0.335737	3.022503	1048.317000
43.707508	0.333301	3.022631	1048.816000
43.729952	0.331093	3.022897	1049.316000
43.750584	0.328977	3.022986	1049.816000
43.772194	0.327197	3.022908	1050.316000
43.795135	0.326110	3.022785	1050.816000
43.815649	0.325087	3.022788	1051.316000
43.834180	0.323845	3.022802	1051.816000
43.855522	0.322925	3.022764	1052.316000
43.875250	0.321699	3.022781	1052.816000
43.896539	0.320847	3.022623	1053.316000
43.917564	0.320608	3.022504	1053.817000
43.940260	0.320145	3.022397	1054.316000
43.962167	0.319747	3.022335	1054.816000
43.983743	0.319140	3.022265	1055.317000
44.004342	0.318792	3.022398	1055.816000
44.025989	0.318594	3.022618	1056.316000
44.049940	0.318177	3.022696	1056.816000
44.071651	0.317951	3.022738	1057.316000
44.092667	0.317999	3.022669	1057.816000
44.114400	0.318091	3.022722	1058.316000
44.135511	0.318500	3.022748	1058.816000
44.157487	0.318845	3.022769	1059.316000
44.178264	0.319132	3.022719	1059.816000
44.200539	0.319793	3.022612	1060.316000
44.223796	0.320457	3.022381	1060.817000
44.246504	0.321067	3.022472	1061.316000
44.268475	0.321697	3.022580	1061.816000
44.290555	0.322259	3.022610	1062.316000
44.311322	0.323188	3.022802	1062.816000
44.333921	0.323707	3.022979	1063.316000
44.356434	0.324374	3.023056	1063.816000
44.379601	0.325390	3.023000	1064.316000
44.402170	0.325984	3.022952	1064.817000
44.423955	0.326869	3.022974	1065.316000
44.445846	0.328150	3.022995	1065.817000
44.468392	0.329716	3.022956	1066.316000
44.490358	0.331604	3.022885	1066.816000
44.512790	0.333102	3.022654	1067.316000
44.538637	0.334093	3.022505	1067.816000
44.560749	0.335761	3.022283	1068.316000
44.582583	0.337380	3.022179	1068.816000
44.604843	0.338612	3.022193	1069.316000
44.626417	0.340073	3.022273	1069.816000
44.648898	0.341838	3.022315	1070.316000
44.669910	0.343523	3.022256	1070.816000
44.692229	0.345620	3.022341	1071.316000
44.714791	0.347516	3.022474	1071.816000
44.737538	0.349487	3.022549	1072.316000
44.759336	0.352043	3.022512	1072.816000
44.780944	0.354936	3.022565	1073.316000
44.803097	0.357377	3.022725	1073.817000
44.825683	0.360019	3.022851	1074.316000
44.849370	0.363049	3.022838	1074.816000
44.871811	0.365995	3.022724	1075.316000
44.894832	0.369105	3.022639	1075.817000
44.916533	0.372154	3.022407	1076.316000
44.937687	0.374973	3.022394	1076.816000
44.958895	0.378090	3.022475	1077.316000
44.979742	0.381789	3.022483	1077.816000
45.001565	0.385532	3.022353	1078.316000
45.025338	0.389386	3.022298	1078.816000
45.047885	0.393489	3.022261	1079.317000
45.069937	0.398168	3.022196	1079.816000
45.090937	0.402774	3.021990	1080.316000
45.113674	0.406966	3.021834	1080.816000
45.137385	0.411244	3.021786	1081.316000
45.160180	0.415134	3.021753	1081.816000
45.181623	0.419619	3.021809	1082.316000
45.202393	0.424651	3.021974	1082.816000
45.224790	0.430023	3.022018	1083.316000
45.249064	0.435388	3.022052	1083.817000
45.270615	0.440722	3.022086	1084.316000
45.292947	0.445521	3.022141	1084.816000
45.316494	0.450499	3.022148	1085.316000
45.339741	0.455899	3.022248	1085.817000
45.361304	0.461411	3.022419	1086.316000
45.387410	0.467563	3.022394	1086.816000
45.409562	0.473896	3.022365	1087.316000
45.432854	0.480202	3.022372	1087.816000
45.449250	0.486305	3.022316	1088.316000
45.471895	0.492624	3.022239	1088.816000
45.495663	0.499269	3.022212	1089.316000
45.516234	0.506182	3.022140	1089.816000
45.539554	0.513032	3.021924	1090.316000
45.560188	0.519711	3.021894	1090.816000
45.581844	0.526777	3.021873	1091.316000
45.610777	0.534050	3.021890	1091.816000
45.626040	0.541367	3.021731	1092.316000
45.650565	0.548974	3.021573	1092.816000
45.680416	0.556457	3.021602	1093.316000
45.701591	0.564016	3.021715	1093.816000
45.724405	0.571692	3.021855	1094.316000
45.747845	0.579818	3.021994	1094.816000
45.768181	0.588347	3.021953	1095.316000
45.789806	0.596962	3.021916	1095.817000
45.812417	0.605484	3.021824	1096.316000
45.833914	0.614571	3.021883	1096.816000
45.853277	0.623849	3.021904	1097.316000
45.874653	0.632872	3.021958	1097.816000
45.897883	0.641559	3.021839	1098.316000
45.919977	0.650057	3.021719	1098.816000
45.940569	0.659439	3.021674	1099.317000
45.963009	0.669480	3.021550	1099.816000
45.984992	0.679182	3.021494	1100.316000
46.007836	0.689299	3.021414	1100.816000
46.030743	0.699500	3.021383	1101.317000
46.052244	0.709631	3.021387	1101.816000
46.072773	0.719476	3.021511	1102.316000
46.093455	0.729712	3.021725	1102.817000
46.115370	0.740420	3.021678	1103.316000
46.136755	0.751399	3.021306	1103.816000
46.157387	0.762538	3.021032	1104.316000
46.176662	0.773782	3.021033	1104.816000
46.199042	0.785082	3.021093	1105.316000
46.219143	0.796210	3.021112	1105.816000
46.239688	0.807592	3.020978	1106.316000
46.260078	0.819364	3.020974	1106.816000
46.282273	0.831220	3.021012	1107.316000
46.305672	0.843749	3.021040	1107.816000
46.324781	0.856436	3.021009	1108.316000
46.345749	0.869517	3.020956	1108.816000
46.370080	0.883323	3.020975	1109.317000
46.390929	0.897090	3.020992	1109.816000
46.411584	0.910673	3.020845	1110.316000
46.431223	0.924959	3.020808	1110.816000
46.452824	0.939073	3.020712	1111.316000
46.474118	0.953208	3.020528	1111.817000
46.498354	0.967287	3.020336	1112.316000
46.518565	0.981448	3.020209	1112.817000
46.540296	0.996254	3.020159	1113.316000
46.561248	1.011296	3.019984	1113.816000
46.585211	1.026720	3.019771	1114.316000
46.604959	1.042794	3.019514	1114.816000
46.624695	1.058884	3.019274	1115.316000
46.647042	1.075209	3.019182	1115.816000
46.670645	1.091665	3.019234	1116.316000
46.691128	1.109073	3.019190	1116.817000
46.712481	1.127024	3.019113	1117.316000
46.734937	1.145015	3.019041	1117.816000
46.754195	1.163771	3.018919	1118.317000
46.777402	1.182456	3.018853	1118.816000
46.797473	1.201543	3.018679	1119.316000
46.816894	1.220685	3.018605	1119.816000
46.839603	1.239812	3.018552	1120.316000
46.859286	1.260085	3.018409	1120.816000
46.881323	1.280957	3.018402	1121.316000
46.900685	1.302095	3.018364	1121.816000
46.921679	1.322379	3.018193	1122.316000
46.943815	1.343238	3.018017	1122.816000
46.966119	1.364402	3.017859	1123.316000
46.986414	1.386183	3.017682	1123.816000
47.002856	1.408442	3.017554	1124.316000
47.003784	1.431504	3.017640	1124.816000
47.002465	1.453979	3.017680	1125.316000
47.001756	1.475824	3.017477	1125.816000
47.001142	1.495265	3.017202	1126.316000
47.000921	1.512718	3.017064	1126.816000
47.000597	1.527252	3.017019	1127.317000
47.000386	1.539724	3.016873	1127.816000
47.000488	1.549222	3.016442	1128.316000
47.000394	1.556937	3.016113	1128.816000
47.000350	1.562725	3.016033	1129.316000
47.000367	1.567953	3.015993	1129.816000
47.000457	1.571830	3.016075	1130.317000
47.000554	1.575544	3.016072	1130.816000
47.000756	1.577651	3.015994	1131.316000
47.000898	1.579941	3.015938	1131.816000
47.001128	1.581264	3.015886	1132.316000
47.001009	1.582639	3.015888	1132.816000
47.001275	1.582950	3.015758	1133.316000
47.001444	1.583750	3.015721	1133.816000
47.001458	1.583702	3.015727	1134.316000
47.001686	1.584228	3.015783	1134.816000
47.001659	1.583860	3.015804	1135.316000
47.001720	1.583919	3.015948	1135.816000
47.005092	1.583862	3.016192	1136.316000
47.012982	1.583434	3.016419	1136.816000
46.993464	1.583705	3.016604	1137.316000
46.975249	1.583597	3.016586	1137.816000
46.956237	1.583474	3.016550	1138.316000
46.936255	1.580704	3.016578	1138.816000
46.916318	1.576492	3.016647	1139.316000
46.896442	1.569115	3.016682	1139.816000
46.879262	1.559495	3.016739	1140.316000
46.859698	1.547589	3.016917	1140.816000
46.841257	1.532967	3.017058	1141.316000
46.822023	1.518252	3.017235	1141.816000
46.802094	1.501117	3.017456	1142.316000
46.782698	1.483723	3.017562	1142.816000
46.762904	1.465858	3.017593	1143.316000
46.742660	1.447241	3.017759	1143.816000
46.724816	1.428653	3.018154	1144.316000
46.704801	1.408254	3.018398	1144.817000
46.683688	1.388855	3.018411	1145.316000
46.663151	1.369243	3.018555	1145.816000
46.642468	1.349866	3.018677	1146.316000
46.623590	1.330755	3.018767	1146.816000
46.605975	1.311668	3.018799	1147.316000
46.586029	1.293384	3.018880	1147.816000
46.566377	1.275074	3.018940	1148.316000
46.545597	1.257795	3.019235	1148.816000
46.527209	1.240574	3.019595	1149.317000
46.505952	1.223336	3.019931	1149.816000
46.487658	1.206596	3.020016	1150.317000
46.465810	1.189348	3.020159	1150.816000
46.448751	1.172848	3.020185	1151.316000
46.427873	1.155244	3.020377	1151.816000
46.410004	1.138551	3.020523	1152.316000
46.392088	1.122106	3.020533	1152.816000
46.374255	1.106018	3.020552	1153.316000
46.354362	1.091433	3.020581	1153.816000
46.330821	1.076127	3.020649	1154.316000
46.314873	1.061823	3.020558	1154.817000
46.297110	1.047018	3.020530	1155.316000
46.275420	1.032797	3.020561	1155.816000
46.255951	1.018937	3.020631	1156.316000
46.236619	1.005458	3.020737	1156.817000
46.217964	0.992840	3.020757	1157.316000
46.198007	0.979291	3.020889	1157.816000
46.177156	0.966635	3.020951	1158.316000
46.158767	0.953683	3.020983	1158.816000
46.139971	0.940787	3.021035	1159.316000
46.121442	0.928470	3.020973	1159.816000
46.101606	0.915642	3.020844	1160.317000
46.081075	0.903983	3.020831	1160.816000
46.061528	0.891715	3.020903	1161.316000
46.042732	0.879927	3.021007	1161.816000
46.020791	0.867928	3.021078	1162.317000
46.000876	0.856188	3.021183	1162.816000
45.979587	0.844886	3.021255	1163.316000
45.960954	0.832919	3.021321	1163.817000
45.939521	0.821982	3.021269	1164.316000
45.922623	0.810744	3.021323	1164.816000
45.902836	0.800556	3.021397	1165.316000
45.881423	0.789705	3.021335	1165.816000
45.861297	0.779091	3.021381	1166.316000
45.844257	0.768434	3.021474	1166.816000
45.828033	0.758636	3.021620	1167.316000
45.809073	0.749210	3.021668	1167.816000
45.789168	0.740158	3.021681	1168.316000
45.767833	0.731293	3.021619	1168.816000
45.751652	0.722103	3.021600	1169.317000
45.727925	0.713504	3.021610	1169.816000
45.707375	0.704748	3.021578	1170.316000
45.686785	0.696791	3.021637	1170.816000
45.669047	0.687626	3.021705	1171.316000
45.647063	0.678593	3.021821	1171.816000
45.627951	0.669184	3.021904	1172.316000
45.610141	0.660840	3.021976	1172.816000
45.590579	0.652821	3.021888	1173.316000
45.571037	0.645353	3.021769	1173.816000
45.552772	0.637339	3.021644	1174.316000
45.534131	0.629835	3.021576	1174.817000
45.514268	0.622062	3.021612	1175.316000
45.495227	0.614659	3.021581	1175.816000
45.473898	0.606898	3.021752	1176.316000
45.452914	0.599433	3.021949	1176.816000
45.435538	0.591775	3.022039	1177.316000
45.414822	0.584752	3.021989	1177.816000
45.395477	0.577446	3.021959	1178.316000
45.374100	0.570880	3.021905	1178.816000
45.354539	0.563528	3.021912	1179.316000
45.335188	0.556514	3.022012	1179.816000
45.314672	0.549561	3.022148	1180.317000
45.293574	0.542701	3.022196	1180.816000
45.273568	0.536042	3.022148	1181.316000
45.252552	0.529822	3.022143	1181.816000
45.231494	0.523360	3.022271	1182.316000
45.212228	0.517057	3.022271	1182.816000
45.194354	0.510706	3.022087	1183.316000
45.175576	0.504400	3.021981	1183.816000
45.155604	0.498653	3.021864	1184.316000
45.133998	0.492607	3.021999	1184.816000
45.113619	0.487294	3.022202	1185.316000
45.094420	0.481930	3.022382	1185.816000
45.073137	0.476772	3.022467	1186.316000
45.054724	0.470825	3.022295	1186.816000
45.033551	0.465437	3.022093	1187.316000
45.011676	0.460595	3.021913	1187.816000
44.989389	0.455514	3.021823	1188.316000
44.965941	0.450834	3.021864	1188.816000
44.945018	0.445549	3.021967	1189.316000
44.926259	0.440928	3.021910	1189.816000
44.903238	0.436336	3.021904	1190.316000
44.881466	0.431954	3.021867	1190.816000
44.862372	0.427134	3.021893	1191.317000
44.842994	0.422100	3.022071	1191.816000
44.825574	0.417627	3.022235	1192.317000
44.805985	0.413040	3.022501	1192.816000
44.782590	0.409163	3.022652	1193.316000
44.763040	0.405629	3.022596	1193.816000
44.742753	0.402891	3.022509	1194.316000
44.727245	0.400154	3.022503	1194.816000
44.703389	0.397000	3.022392	1195.316000
44.680762	0.393486	3.022240	1195.817000
44.663185	0.389421	3.022124	1196.316000
44.645117	0.385870	3.022114	1196.816000
44.627292	0.382869	3.022278	1197.316000
44.608292	0.379860	3.022420	1197.816000
44.585730	0.375868	3.022416	1198.316000
44.567053	0.371992	3.022241	1198.816000
44.547292	0.369369	3.022083	1199.316000
44.525611	0.367485	3.022093	1199.816000
44.505658	0.365536	3.022166	1200.317000
44.486392	0.363757	3.022247	1200.816000
44.463667	0.360947	3.022321	1201.317000
44.446073	0.357942	3.022335	1201.816000
44.424953	0.355438	3.022363	1202.317000
44.406569	0.352750	3.022569	1202.816000
44.385967	0.350510	3.022740	1203.316000
44.365349	0.348695	3.022860	1203.816000
44.344892	0.347186	3.022794	1204.316000
44.325142	0.346358	3.022649	1204.816000
44.305890	0.345513	3.022529	1205.316000
44.285331	0.344560	3.022473	1205.817000
44.264493	0.343152	3.022574	1206.316000
44.244482	0.341385	3.022691	1206.816000
44.225357	0.339705	3.022697	1207.316000
44.204937	0.338200	3.022602	1207.817000
44.185915	0.336768	3.022537	1208.316000
44.166116	0.335067	3.022369	1208.816000
44.147344	0.333552	3.022252	1209.316000
44.127098	0.332192	3.022263	1209.816000
44.107836	0.331246	3.022290	1210.316000
44.088382	0.330583	3.022399	1210.816000
44.068448	0.329334	3.022542	1211.316000
44.048044	0.328425	3.022663	1211.816000
44.028417	0.327716	3.022719	1212.317000
44.009228	0.327127	3.022773	1212.816000
43.989173	0.326509	3.022685	1213.317000
43.969430	0.325573	3.022550	1213.816000
43.949694	0.324750	3.022409	1214.317000
43.929767	0.324125	3.022125	1214.816000
43.910182	0.323209	3.021766	1215.316000
43.893362	0.322026	3.021783	1215.816000
43.874783	0.321397	3.021860	1216.316000
43.856247	0.321001	3.021890	1216.816000
43.837567	0.321136	3.021970	1217.316000
43.817853	0.320929	3.022091	1217.816000
43.796134	0.321025	3.022250	1218.316000
43.776389	0.321587	3.022282	1218.817000
43.758277	0.321747	3.022280	1219.316000
43.738229	0.321804	3.022302	1219.816000
43.717918	0.321754	3.022246	1220.316000
43.697341	0.321503	3.022245	1220.816000
43.679172	0.321471	3.022280	1221.316000
43.660120	0.321511	3.022308	1221.816000
43.640207	0.321902	3.022386	1222.316000
43.619598	0.322506	3.022444	1222.816000
43.598779	0.323170	3.022503	1223.316000
43.576487	0.324285	3.022517	1223.816000
43.559568	0.325515	3.022502	1224.316000
43.540636	0.326777	3.022380	1224.816000
43.521812	0.328448	3.022335	1225.316000
43.502789	0.329629	3.022407	1225.816000
43.484174	0.331058	3.022535	1226.316000
43.463275	0.332837	3.022613	1226.816000
43.442786	0.334593	3.022660	1227.316000
43.421576	0.336730	3.022765	1227.816000
43.402176	0.339217	3.022852	1228.316000
43.381381	0.341858	3.022832	1228.816000
43.361241	0.345099	3.022874	1229.316000
43.341857	0.348017	3.022996	1229.816000
43.318848	0.351401	3.023065	1230.316000
43.299899	0.354961	3.022950	1230.816000
43.280611	0.358529	3.022906	1231.317000
43.263263	0.362422	3.022915	1231.816000
43.244171	0.366393	3.022871	1232.316000
43.225070	0.370371	3.022752	1232.816000
43.206458	0.374442	3.022501	1233.316000
43.185788	0.378731	3.022337	1233.816000
43.166160	0.383357	3.022241	1234.316000
43.144455	0.388032	3.022204	1234.816000
43.123297	0.393018	3.022222	1235.316000
43.106912	0.398477	3.022191	1235.816000
43.087146	0.404615	3.022105	1236.316000
43.066165	0.410733	3.022006	1236.816000
43.043085	0.417218	3.021793	1237.316000
43.023355	0.424066	3.021693	1237.816000
43.003831	0.431158	3.021693	1238.316000
42.984134	0.438488	3.021447	1238.816000
42.961253	0.446013	3.021198	1239.316000
42.941823	0.454294	3.021026	1239.817000
42.921757	0.462777	3.020706	1240.316000
42.903671	0.471159	3.020288	1240.816000
42.885898	0.479843	3.020139	1241.316000
42.863947	0.489040	3.020099	1241.816000
42.842963	0.498343	3.019859	1242.316000
42.822657	0.508405	3.019448	1242.816000
42.804656	0.518532	3.019084	1243.316000
42.787590	0.529358	3.018671	1243.816000
42.766762	0.540641	3.018210	1244.317000
42.745601	0.551880	3.017772	1244.816000
42.725643	0.562849	3.017504	1245.316000
42.707596	0.574055	3.017196	1245.816000
42.685403	0.585311	3.016733	1246.316000
42.665738	0.596707	3.016212	1246.816000
42.645807	0.608673	3.015715	1247.316000
42.629265	0.621012	3.015023	1247.817000
42.613243	0.634029	3.014342	1248.316000
42.589363	0.647281	3.013636	1248.816000
42.569798	0.660760	3.012935	1249.316000
42.550043	0.674411	3.012364	1249.816000
42.531827	0.688436	3.011903	1250.316000
42.513083	0.702555	3.011341	1250.816000
42.491360	0.717063	3.010713	1251.317000
42.473329	0.731902	3.010014	1251.816000
42.459943	0.747208	3.009135	1252.316000
42.436626	0.762743	3.008186	1252.816000
42.414651	0.778454	3.007244	1253.317000
42.400346	0.793598	3.006265	1253.816000
42.375014	0.808755	3.005317	1254.316000
42.354335	0.824244	3.004214	1254.816000
42.333305	0.840398	3.003025	1255.316000
42.313776	0.856535	3.001776	1255.816000
42.294830	0.873279	3.000590	1256.316000
42.275980	0.890877	2.999599	1256.817000
42.256974	0.908393	2.998497	1257.316000
42.237496	0.926081	2.997376	1257.816000
42.218635	0.943761	2.996140	1258.316000
42.199128	0.961380	2.994860	1258.816000
42.176167	0.978989	2.993379	1259.316000
42.158330	0.996978	2.991841	1259.816000
42.137501	1.014865	2.990509	1260.316000
42.118223	1.032311	2.989139	1260.816000
42.097983	1.050260	2.987651	1261.316000
42.078363	1.068444	2.986220	1261.816000
42.058423	1.086344	2.984810	1262.316000
42.039760	1.103627	2.983215	1262.816000
42.021644	1.120913	2.981586	1263.316000
42.001737	1.137836	2.979814	1263.816000
41.981224	1.154657	2.977768	1264.317000
41.959360	1.171548	2.975677	1264.816000
41.940701	1.188406	2.973850	1265.316000
41.922451	1.205526	2.972142	1265.817000
41.900791	1.222595	2.970465	1266.316000
41.883113	1.239687	2.968704	1266.817000
41.864237	1.256820	2.966850	1267.316000
41.846596	1.273831	2.964908	1267.816000
41.830701	1.290178	2.962950	1268.316000
41.808957	1.306384	2.960913	1268.816000
41.791099	1.322791	2.958836	1269.316000
41.770134	1.338764	2.956571	1269.816000
41.754309	1.354385	2.954377	1270.316000
41.736827	1.369617	2.952310	1270.816000
41.718659	1.385170	2.950024	1271.317000
41.697699	1.401321	2.947707	1271.816000
41.679443	1.417893	2.945449	1272.316000
41.659237	1.434126	2.943492	1272.816000
41.639354	1.450505	2.941438	1273.316000
41.617952	1.466883	2.939200	1273.816000
41.598864	1.482860	2.937028	1274.316000
41.578219	1.498660	2.934938	1274.816000
41.553185	1.513817	2.932723	1275.316000
41.537875	1.528648	2.930177	1275.817000
41.516318	1.543343	2.927587	1276.316000
41.493514	1.557961	2.925002	1276.817000
41.475363	1.571979	2.922299	1277.316000
41.456474	1.585744	2.919581	1277.816000
41.436661	1.599516	2.917036	1278.316000
41.413350	1.612760	2.914562	1278.816000
41.396890	1.625612	2.911840	1279.316000
41.374097	1.638253	2.909057	1279.816000
41.355664	1.650545	2.906296	1280.316000
41.336328	1.662202	2.903517	1280.816000
41.314297	1.674098	2.900801	1281.316000
41.297465	1.686806	2.898047	1281.816000
41.276216	1.699856	2.895245	1282.316000
41.257603	1.712332	2.892412	1282.816000
41.235708	1.724412	2.889470	1283.316000
41.211674	1.736608	2.886649	1283.816000
41.192389	1.748692	2.883934	1284.316000
41.173307	1.760289	2.881151	1284.816000
41.152604	1.771470	2.878382	1285.316000
41.133078	1.781731	2.875486	1285.816000
41.116053	1.791751	2.872572	1286.316000
41.093497	1.801989	2.869591	1286.816000
41.074323	1.812122	2.866770	1287.316000
41.054331	1.821515	2.863966	1287.816000
41.034336	1.830225	2.861180	1288.316000
41.015869	1.839781	2.858350	1288.816000
40.996911	1.849633	2.855505	1289.316000
40.976885	1.859246	2.852709	1289.817000
40.957740	1.868569	2.849839	1290.316000
40.937459	1.877965	2.846989	1290.817000
40.914587	1.887034	2.844281	1291.316000
40.890781	1.896271	2.841456	1291.816000
40.873028	1.905803	2.838603	1292.316000
40.852813	1.915125	2.835839	1292.816000
40.833858	1.924216	2.833130	1293.317000
40.812472	1.932937	2.830243	1293.816000
40.792573	1.941253	2.827358	1294.316000
40.772359	1.949636	2.824490	1294.816000
40.752985	1.957732	2.821747	1295.316000
40.733350	1.966162	2.818944	1295.816000
40.714364	1.973784	2.816127	1296.316000
40.691713	1.980366	2.813402	1296.817000
40.670905	1.987127	2.810618	1297.316000
40.651009	1.993794	2.807875	1297.816000
40.632661	2.000512	2.804927	1298.316000
40.610570	2.007327	2.801999	1298.816000
40.588954	2.014597	2.799265	1299.316000
40.570568	2.021502	2.796668	1299.816000
40.547532	2.027955	2.793882	1300.316000
40.527587	2.034724	2.790927	1300.816000
40.505272	2.041857	2.788117	1301.316000
40.485637	2.049827	2.785445	1301.816000
40.465286	2.058065	2.782747	1302.317000
40.444325	2.066145	2.780078	1302.816000
40.422029	2.073979	2.777492	1303.316000
40.402803	2.082334	2.774871	1303.816000
40.381364	2.090776	2.772103	1304.317000
40.362616	2.098986	2.769330	1304.816000
40.342085	2.107710	2.766630	1305.316000
40.319534	2.115976	2.764023	1305.816000
40.297377	2.122266	2.761359	1306.316000
40.281115	2.127804	2.758733	1306.816000
40.260863	2.133601	2.755972	1307.316000
40.237137	2.139286	2.753113	1307.816000
40.218268	2.145400	2.750339	1308.316000
40.199568	2.152706	2.747718	1308.816000
40.178211	2.160028	2.745277	1309.316000
40.157804	2.167663	2.742665	1309.816000
40.136951	2.175587	2.740192	1310.316000
40.117793	2.183239	2.737696	1310.816000
40.096511	2.190758	2.735206	1311.316000
40.077699	2.197601	2.732763	1311.816000
40.056387	2.204421	2.730361	1312.317000
40.034713	2.210878	2.728010	1312.816000
40.014094	2.216919	2.725692	1313.316000
39.993152	2.222853	2.723494	1313.816000
39.973489	2.228406	2.721187	1314.317000
39.953194	2.233667	2.718732	1314.816000
39.931162	2.239791	2.716341	1315.317000
39.908899	2.246916	2.714034	1315.816000
39.887959	2.255140	2.711691	1316.316000
39.863380	2.263374	2.709228	1316.816000
39.842406	2.271035	2.706748	1317.316000
39.821135	2.278135	2.704218	1317.816000
39.801044	2.284554	2.701821	1318.316000
39.779572	2.290697	2.699534	1318.816000
39.762386	2.296935	2.697222	1319.316000
39.738720	2.303233	2.694864	1319.816000
39.723765	2.309537	2.692574	1320.316000
39.700753	2.315809	2.690248	1320.816000
39.680362	2.321474	2.687946	1321.316000
39.655011	2.326958	2.685637	1321.816000
39.641160	2.331969	2.683260	1322.316000
39.617492	2.337305	2.680923	1322.816000
39.601551	2.342317	2.678652	1323.316000
39.580761	2.347223	2.676477	1323.816000
39.556026	2.352579	2.674332	1324.316000
39.530654	2.358416	2.672356	1324.816000
39.514711	2.364340	2.670413	1325.316000
39.500455	2.369724	2.668378	1325.816000
39.482280	2.375049	2.666220	1326.316000
39.457967	2.380208	2.664148	1326.816000
39.439848	2.385600	2.662228	1327.316000
39.417560	2.391690	2.660405	1327.817000
39.401377	2.397965	2.658498	1328.316000
39.377775	2.403898	2.656286	1328.816000
39.353808	2.409556	2.654119	1329.316000
39.334395	2.415383	2.651988	1329.817000
39.315395	2.420832	2.649874	1330.316000
39.296934	2.425852	2.647714	1330.816000
39.275546	2.430860	2.645619	1331.316000
39.251414	2.435517	2.643618	1331.817000
39.232299	2.440651	2.641682	1332.316000
39.215329	2.445490	2.639785	1332.816000
39.191353	2.450303	2.637720	1333.316000
39.173528	2.455071	2.635498	1333.816000
39.152591	2.459954	2.633435	1334.316000
39.130036	2.464925	2.631538	1334.816000
39.109035	2.469454	2.629689	1335.316000
39.088746	2.474301	2.627722	1335.816000
39.069043	2.479170	2.625827	1336.316000
39.049019	2.483941	2.623934	1336.816000
39.026797	2.488773	2.621930	1337.316000
39.007760	2.494256	2.619989	1337.817000
38.988247	2.499549	2.618157	1338.316000
38.969226	2.504618	2.616346	1338.816000
38.948582	2.509711	2.614427	1339.316000
38.928545	2.515108	2.612572	1339.816000
38.909796	2.521047	2.610764	1340.316000
38.888748	2.527354	2.608929	1340.816000
38.868272	2.533402	2.607118	1341.316000
38.849819	2.538512	2.605113	1341.816000
38.831578	2.543701	2.603070	1342.316000
38.813022	2.548626	2.601303	1342.816000
38.793525	2.553553	2.599712	1343.316000
38.771822	2.558829	2.597962	1343.816000
38.751888	2.564303	2.596170	1344.316000
38.731852	2.569884	2.594537	1344.816000
38.713915	2.575722	2.592964	1345.317000
38.697091	2.581596	2.591313	1345.816000
38.679039	2.587495	2.589549	1346.316000
38.659796	2.593480	2.587725	1346.816000
38.639410	2.599395	2.585728	1347.316000
38.616174	2.605587	2.583831	1347.817000
38.594696	2.612853	2.582169	1348.316000
38.574804	2.620262	2.580513	1348.816000
38.554462	2.627711	2.578941	1349.316000
38.532051	2.634845	2.577215	1349.816000
38.510184	2.641801	2.575424	1350.316000
38.489843	2.648785	2.573729	1350.816000
38.468177	2.655608	2.572047	1351.316000
38.448325	2.662554	2.570261	1351.816000
38.424548	2.669864	2.568552	1352.316000
38.402252	2.677086	2.566851	1352.816000
38.386572	2.684312	2.565074	1353.316000
38.368678	2.692501	2.563244	1353.816000
38.349686	2.700926	2.561571	1354.316000
38.325519	2.708976	2.559880	1354.816000
38.307137	2.716709	2.558124	1355.316000
38.285093	2.724194	2.556382	1355.816000
38.266679	2.732234	2.554711	1356.317000
38.247552	2.740408	2.552935	1356.816000
38.228766	2.749250	2.551146	1357.316000
38.210651	2.758758	2.549479	1357.816000
38.191849	2.767547	2.547750	1358.316000
38.172316	2.776011	2.546152	1358.816000
38.152284	2.784950	2.544503	1359.316000
38.134823	2.794909	2.543075	1359.816000
38.115498	2.805130	2.541581	1360.316000
38.091029	2.814896	2.539992	1360.816000
38.069918	2.823781	2.538270	1361.316000
38.050109	2.832443	2.536524	1361.816000
38.033569	2.841035	2.534889	1362.316000
38.015111	2.849393	2.533289	1362.817000
37.992673	2.857831	2.531560	1363.316000
37.971726	2.866524	2.529849	1363.816000
37.953371	2.875065	2.528258	1364.317000
37.935099	2.884099	2.526760	1364.816000
37.911329	2.892833	2.525113	1365.316000
37.892663	2.900941	2.523497	1365.816000
37.872366	2.908518	2.522069	1366.316000
37.854306	2.916127	2.520526	1366.816000
37.832374	2.924671	2.518978	1367.317000
37.810854	2.933273	2.517421	1367.816000
37.785770	2.941640	2.515717	1368.316000
37.773665	2.949790	2.514012	1368.816000
37.755354	2.958145	2.512267	1369.316000
37.735866	2.967208	2.510561	1369.816000
37.717979	2.976078	2.508835	1370.316000
37.693880	2.984544	2.507053	1370.816000
37.676440	2.992608	2.505318	1371.316000
37.658173	3.000722	2.503714	1371.816000
37.639571	3.009129	2.502181	1372.316000
37.621643	3.017580	2.500608	1372.816000
37.602158	3.026097	2.499035	1373.316000
37.583194	3.034007	2.497479	1373.816000
37.563992	3.041037	2.495933	1374.316000
37.544070	3.047811	2.494507	1374.816000
37.524402	3.053996	2.492953	1375.316000
37.507429	3.060396	2.491409	1375.816000
37.486006	3.066861	2.489782	1376.316000
37.465905	3.073664	2.488261	1376.816000
37.443817	3.081228	2.486875	1377.316000
37.425806	3.089390	2.485552	1377.816000
37.406468	3.097520	2.484246	1378.317000
37.384058	3.105542	2.482910	1378.816000
37.363472	3.113311	2.481430	1379.316000
37.346557	3.120735	2.479683	1379.817000
37.326892	3.128671	2.477992	1380.316000
37.306864	3.136009	2.476333	1380.816000
37.284749	3.142886	2.474769	1381.316000
37.270016	3.149762	2.473244	1381.816000
37.251038	3.156540	2.471641	1382.316000
37.231281	3.163718	2.469926	1382.816000
37.214026	3.170743	2.468281	1383.316000
37.192996	3.177812	2.466812	1383.816000
37.171620	3.185223	2.465265	1384.316000
37.153682	3.192775	2.463702	1384.816000
37.133317	3.199532	2.462106	1385.316000
37.111742	3.206547	2.460361	1385.816000
37.093107	3.214297	2.458881	1386.316000
37.074297	3.221730	2.457462	1386.816000
37.052710	3.229287	2.456126	1387.316000
37.032391	3.236538	2.454760	1387.816000
37.012992	3.244437	2.453286	1388.317000
36.992130	3.252709	2.451958	1388.816000
36.971648	3.261193	2.450533	1389.316000
36.950498	3.270372	2.449003	1389.816000
36.929245	3.279884	2.447480	1390.316000
36.910454	3.289162	2.446100	1390.817000
36.889272	3.297834	2.444487	1391.316000
36.867369	3.306074	2.442810	1391.817000
36.850511	3.314385	2.441051	1392.316000
36.832877	3.323356	2.439413	1392.816000
36.810153	3.331967	2.437900	1393.316000
36.791644	3.340351	2.436434	1393.816000
36.770974	3.349032	2.434993	1394.316000
36.752466	3.357332	2.433513	1394.816000
36.732926	3.365235	2.431990	1395.316000
36.715151	3.373069	2.430256	1395.816000
36.694601	3.380749	2.428592	1396.316000
36.675540	3.388488	2.426940	1396.816000
36.660800	3.396359	2.425395	1397.316000
36.642514	3.404142	2.423858	1397.816000
36.622128	3.411796	2.422368	1398.316000
36.601654	3.418796	2.420874	1398.816000
36.581506	3.425321	2.419449	1399.316000
36.563527	3.430891	2.417854	1399.817000
36.543753	3.436603	2.416398	1400.316000
36.524156	3.442895	2.414887	1400.817000
36.502014	3.449698	2.413422	1401.316000
36.479352	3.456730	2.412031	1401.816000
36.459399	3.464006	2.410478	1402.316000
36.436996	3.471349	2.409035	1402.816000
36.417542	3.477815	2.407610	1403.316000
36.399002	3.483944	2.406196	1403.816000
36.376703	3.490138	2.404722	1404.316000
36.355087	3.496448	2.403271	1404.816000
36.340177	3.502856	2.401647	1405.316000
36.317375	3.508952	2.400088	1405.816000
36.291763	3.513880	2.398531	1406.316000
36.274982	3.518627	2.397094	1406.816000
36.250031	3.523190	2.395799	1407.316000
36.230624	3.527743	2.394406	1407.816000
36.210785	3.532315	2.393006	1408.316000
36.192294	3.537025	2.391406	1408.816000
36.172287	3.542486	2.389664	1409.316000
36.152197	3.548603	2.387812	1409.817000
36.133639	3.554080	2.386083	1410.316000
36.113639	3.558855	2.384272	1410.816000
36.095608	3.563622	2.382474	1411.316000
36.078232	3.568712	2.380772	1411.816000
36.060135	3.573574	2.379189	1412.316000
36.042020	3.578394	2.377724	1412.816000
36.016418	3.583451	2.376387	1413.316000
35.998129	3.589203	2.375125	1413.816000
35.978948	3.595586	2.373658	1414.316000
35.956692	3.601868	2.372126	1414.816000
35.936726	3.608024	2.370632	1415.316000
35.917039	3.613718	2.368982	1415.816000
35.898730	3.618667	2.367429	1416.316000
35.881094	3.623560	2.365931	1416.816000
35.862686	3.628658	2.364488	1417.316000
35.844363	3.634223	2.362961	1417.816000
35.822589	3.640148	2.361356	1418.316000
35.800104	3.646117	2.359813	1418.816000
35.782866	3.651700	2.358380	1419.316000
35.763949	3.657330	2.357016	1419.816000
35.741066	3.663460	2.355596	1420.316000
35.720941	3.669254	2.354106	1420.816000
35.702133	3.674865	2.352755	1421.316000
35.680780	3.680392	2.351469	1421.816000
35.660254	3.685793	2.350147	1422.316000
35.638788	3.691230	2.348761	1422.816000
35.617935	3.697048	2.347260	1423.316000
35.599411	3.702731	2.345670	1423.816000
35.579763	3.708277	2.344081	1424.316000
35.560686	3.714290	2.342324	1424.816000
35.542656	3.720221	2.340659	1425.316000
35.521328	3.726090	2.339025	1425.816000
35.499796	3.732108	2.337374	1426.316000
35.478629	3.737728	2.335841	1426.816000
35.460458	3.743419	2.334428	1427.316000
35.436218	3.747981	2.332780	1427.816000
35.416397	3.751921	2.331219	1428.316000
35.396071	3.756153	2.329708	1428.816000
35.377781	3.761630	2.328165	1429.316000
35.358852	3.767403	2.326650	1429.816000
35.338612	3.773247	2.325182	1430.317000
35.317889	3.778499	2.323554	1430.817000
35.298551	3.783370	2.321809	1431.316000
35.277720	3.788073	2.320160	1431.817000
35.258111	3.792756	2.318541	1432.316000
35.236298	3.797001	2.316938	1432.816000
35.217649	3.801230	2.315509	1433.316000
35.199096	3.805550	2.313948	1433.817000
35.176024	3.809539	2.312323	1434.316000
35.156503	3.813245	2.310828	1434.816000
35.134507	3.817095	2.309445	1435.316000
35.113638	3.820949	2.308205	1435.816000
35.090060	3.824939	2.306853	1436.316000
35.068484	3.828563	2.305380	1436.816000
35.051868	3.831906	2.303636	1437.316000
35.029672	3.835347	2.301992	1437.816000
35.010471	3.838972	2.300442	1438.316000
34.991272	3.842506	2.298910	1438.816000
34.969913	3.846043	2.297414	1439.317000
34.946625	3.849299	2.295951	1439.816000
34.924280	3.851869	2.294324	1440.317000
34.905743	3.854784	2.292772	1440.816000
34.882834	3.858048	2.291172	1441.316000
34.859357	3.861128	2.289463	1441.816000
34.838361	3.864084	2.287664	1442.316000
34.819620	3.866898	2.286003	1442.816000
34.798336	3.869384	2.284264	1443.316000
34.779112	3.871573	2.282625	1443.816000
34.761541	3.873953	2.280916	1444.316000
34.743497	3.876577	2.279384	1444.816000
34.723068	3.879516	2.277798	1445.316000
34.705319	3.882066	2.276227	1445.816000
34.686136	3.884377	2.274531	1446.316000
34.662988	3.886586	2.272987	1446.816000
34.640723	3.888331	2.271549	1447.316000
34.622757	3.889939	2.270154	1447.816000
34.604138	3.891230	2.268582	1448.316000
34.578224	3.892632	2.266938	1448.816000
34.557560	3.894449	2.265428	1449.316000
34.532870	3.896302	2.264010	1449.816000
34.514576	3.898654	2.262490	1450.316000
34.495358	3.900742	2.260979	1450.816000
34.474457	3.902791	2.259467	1451.316000
34.456100	3.904955	2.257832	1451.816000
34.435876	3.907328	2.256190	1452.316000
34.415227	3.909610	2.254525	1452.817000
34.390158	3.911645	2.252955	1453.316000
34.371174	3.913947	2.251259	1453.816000
34.351735	3.916165	2.249692	1454.316000
34.330924	3.917545	2.247947	1454.817000
34.312080	3.918755	2.246195	1455.316000
34.291338	3.919898	2.244607	1455.817000
34.264740	3.920934	2.243256	1456.317000
34.250474	3.921703	2.241708	1456.816000
34.230841	3.922383	2.240162	1457.316000
34.208901	3.923106	2.238582	1457.816000
34.190160	3.924280	2.237091	1458.317000
34.167174	3.926081	2.235406	1458.816000
34.145356	3.927848	2.233743	1459.316000
34.118481	3.929006	2.232163	1459.816000
34.103238	3.929860	2.230582	1460.316000
34.082330	3.930440	2.229010	1460.816000
34.054691	3.931111	2.227318	1461.316000
34.038724	3.931864	2.225404	1461.816000
34.020087	3.932470	2.223813	1462.316000
33.996045	3.932535	2.222324	1462.816000
33.974560	3.932786	2.220847	1463.316000
33.953955	3.933190	2.219358	1463.816000
33.932605	3.933591	2.217802	1464.316000
33.913672	3.933739	2.216190	1464.816000
33.896075	3.933770	2.214514	1465.316000
33.879019	3.933563	2.212871	1465.816000
33.859996	3.933424	2.211279	1466.317000
33.836811	3.933591	2.209735	1466.816000
33.819467	3.933798	2.208092	1467.317000
33.801037	3.934362	2.206425	1467.816000
33.780514	3.934763	2.204740	1468.316000
33.756730	3.934838	2.203195	1468.816000
33.734905	3.934208	2.201701	1469.316000
33.718945	3.933141	2.200315	1469.816000
33.698771	3.932315	2.198978	1470.316000
33.675563	3.931437	2.197634	1470.816000
33.656494	3.931026	2.196116	1471.316000
33.635893	3.930671	2.194515	1471.817000
33.616083	3.929990	2.192846	1472.316000
33.598863	3.928570	2.191253	1472.816000
33.578338	3.926982	2.189780	1473.316000
33.557101	3.925308	2.188197	1473.816000
33.536255	3.923492	2.186499	1474.316000
33.518130	3.921790	2.185003	1474.816000
33.497543	3.919896	2.183544	1475.316000
33.474619	3.917617	2.181983	1475.816000
33.455286	3.914999	2.180430	1476.316000
33.436230	3.911974	2.178855	1476.816000
33.414273	3.909407	2.177142	1477.316000
33.393516	3.906819	2.175265	1477.816000
33.366255	3.904024	2.173469	1478.316000
33.347407	3.901297	2.171846	1478.816000
33.331256	3.898280	2.170133	1479.316000
33.313713	3.895066	2.168513	1479.816000
33.294663	3.892018	2.166918	1480.317000
33.273594	3.889396	2.165422	1480.816000
33.251643	3.886409	2.163884	1481.317000
33.228051	3.883345	2.162522	1481.817000
33.212320	3.880369	2.161049	1482.316000
33.192765	3.876770	2.159416	1482.817000
33.172614	3.872879	2.157674	1483.316000
33.152376	3.869420	2.156003	1483.816000
33.132290	3.866272	2.154379	1484.316000
33.110713	3.863038	2.152731	1484.816000
33.090231	3.859250	2.151132	1485.316000
33.068985	3.854945	2.149553	1485.816000
33.047781	3.850048	2.147987	1486.316000
33.028160	3.845163	2.146399	1486.817000
33.008219	3.840457	2.144812	1487.316000
32.986701	3.835949	2.143316	1487.816000
32.966692	3.831298	2.141642	1488.316000
32.946224	3.826224	2.139842	1488.816000
32.926355	3.821310	2.138154	1489.317000
32.903431	3.816182	2.136663	1489.816000
32.884530	3.811213	2.135159	1490.316000
32.864282	3.805827	2.133520	1490.816000
32.845662	3.799722	2.131810	1491.317000
32.828500	3.793060	2.130042	1491.817000
32.805114	3.786674	2.128202	1492.316000
32.785746	3.780505	2.126538	1492.817000
32.766148	3.774649	2.124961	1493.316000
32.744697	3.768388	2.123437	1493.816000
32.727246	3.761622	2.121896	1494.316000
32.704767	3.754551	2.120156	1494.817000
32.689100	3.747260	2.118514	1495.316000
32.666436	3.740105	2.117102	1495.816000
32.642415	3.733103	2.115470	1496.316000
32.624739	3.725916	2.113930	1496.817000
32.608872	3.718491	2.112543	1497.316000
32.587534	3.710784	2.111123	1497.816000
32.569591	3.702863	2.109710	1498.316000
32.549563	3.694781	2.108065	1498.816000
32.530613	3.686634	2.106199	1499.316000
32.513330	3.678234	2.104461	1499.816000
32.492918	3.668991	2.102997	1500.316000
32.467401	3.659683	2.101519	1500.816000
32.449999	3.650168	2.100000	1501.316000
32.433438	3.640387	2.098403	1501.816000
32.414470	3.630296	2.096765	1502.316000
32.394467	3.619983	2.095227	1502.816000
32.374082	3.609415	2.093697	1503.316000
32.353367	3.598982	2.092155	1503.816000
32.333126	3.588215	2.090568	1504.316000
32.314252	3.576553	2.088884	1504.817000
32.297035	3.564497	2.087341	1505.316000
32.272430	3.552609	2.085830	1505.817000
32.249278	3.540452	2.084486	1506.316000
32.235788	3.528131	2.082997	1506.816000
32.216029	3.515362	2.081478	1507.316000
32.194985	3.501846	2.079694	1507.816000
32.176280	3.487696	2.077822	1508.317000
32.159182	3.473743	2.076325	1508.816000
32.141591	3.459803	2.074878	1509.316000
32.118821	3.445509	2.073600	1509.816000
32.098919	3.431786	2.072193	1510.316000
32.081497	3.417539	2.070651	1510.816000
32.061539	3.402854	2.069231	1511.317000
32.037917	3.387548	2.067844	1511.816000
32.018698	3.371579	2.066580	1512.316000
31.998763	3.355578	2.065382	1512.816000
31.978707	3.339587	2.063915	1513.316000
31.953882	3.323356	2.062489	1513.817000
31.934636	3.306360	2.060942	1514.316000
31.912436	3.289138	2.059452	1514.816000
31.889793	3.271453	2.057942	1515.316000
31.868831	3.253281	2.056394	1515.816000
31.857324	3.234824	2.054892	1516.316000
31.830246	3.215765	2.053424	1516.816000
31.807735	3.196673	2.052044	1517.317000
31.791496	3.177216	2.050552	1517.816000
31.775529	3.157269	2.049000	1518.317000
31.757961	3.137403	2.047716	1518.816000
31.738150	3.118163	2.046540	1519.316000
31.717136	3.099359	2.045374	1519.816000
31.700441	3.080388	2.044221	1520.316000
31.680606	3.060853	2.043094	1520.816000
31.659271	3.041359	2.041964	1521.316000
31.638357	3.021851	2.040615	1521.816000
31.617912	3.001917	2.039217	1522.317000
31.597738	2.981839	2.037988	1522.816000
31.579523	2.961417	2.036737	1523.316000
31.559860	2.941174	2.035820	1523.816000
31.538168	2.921245	2.034812	1524.316000
31.518046	2.901003	2.033920	1524.816000
31.498822	2.880710	2.033021	1525.316000
31.479801	2.860096	2.031948	1525.817000
31.459420	2.839688	2.030858	1526.316000
31.441413	2.819571	2.029984	1526.816000
31.420377	2.799204	2.029167	1527.316000
31.394584	2.778509	2.028253	1527.816000
31.377293	2.757884	2.027261	1528.316000
31.356500	2.737474	2.026246	1528.816000
31.337782	2.717140	2.025370	1529.316000
31.317870	2.696917	2.024537	1529.816000
31.302151	2.676338	2.023704	1530.316000
31.287120	2.655721	2.022969	1530.816000
31.266588	2.635884	2.022403	1531.316000
31.243139	2.616506	2.021828	1531.816000
31.223415	2.597570	2.021290	1532.316000
31.202644	2.578787	2.020591	1532.816000
31.179751	2.560178	2.019845	1533.316000
31.158344	2.541593	2.019053	1533.816000
31.140987	2.522918	2.018201	1534.316000
31.122530	2.504310	2.017467	1534.816000
31.105308	2.486044	2.016690	1535.316000
31.085745	2.468265	2.016005	1535.816000
31.062856	2.450884	2.015381	1536.316000
31.047200	2.433646	2.014820	1536.816000
31.028492	2.416653	2.014295	1537.316000
31.008411	2.399533	2.013730	1537.816000
30.989142	2.382630	2.013309	1538.316000
30.967737	2.366512	2.012991	1538.816000
30.949435	2.350916	2.012801	1539.316000
30.928251	2.335974	2.012558	1539.816000
30.907899	2.321202	2.012156	1540.316000
30.885076	2.306260	2.011781	1540.816000
30.863829	2.291187	2.011225	1541.317000
30.842926	2.276215	2.010715	1541.816000
30.821888	2.261741	2.010292	1542.316000
30.802968	2.247592	2.009963	1542.816000
30.780194	2.234143	2.009552	1543.316000
30.760945	2.220748	2.009066	1543.816000
30.741017	2.207528	2.008634	1544.316000
30.716722	2.194497	2.008216	1544.816000
30.698014	2.181423	2.007842	1545.316000
30.679385	2.168631	2.007474	1545.816000
30.656963	2.156351	2.007210	1546.316000
30.634953	2.144309	2.006965	1546.816000
30.618815	2.132858	2.006513	1547.316000
30.600592	2.122099	2.006121	1547.816000
30.579081	2.111896	2.005853	1548.317000
30.555793	2.102025	2.005613	1548.816000
30.536537	2.092594	2.005213	1549.316000
30.516578	2.083503	2.004868	1549.816000
30.498298	2.074849	2.004659	1550.316000
30.476283	2.066397	2.004549	1550.816000
30.455702	2.058203	2.004533	1551.316000
30.434839	2.050599	2.004497	1551.816000
30.408584	2.043272	2.004284	1552.316000
30.390305	2.036323	2.004075	1552.816000
30.371796	2.029802	2.003756	1553.316000
30.350956	2.023424	2.003503	1553.816000
30.330381	2.017560	2.003274	1554.316000
30.309830	2.012569	2.002966	1554.816000
30.292494	2.007703	2.002745	1555.316000
30.270124	2.003355	2.002440	1555.816000
30.245685	1.999493	2.002237	1556.316000
30.225567	1.996156	2.001884	1556.816000
30.206128	1.993344	2.001312	1557.316000
30.187961	1.990440	2.000844	1557.816000
30.169876	1.987636	2.000525	1558.316000
30.146542	1.985355	2.000328	1558.816000
30.126052	1.983596	2.000245	1559.316000
30.107799	1.981756	2.000044	1559.816000
30.085607	1.980215	1.999919	1560.316000
30.063987	1.979296	1.999625	1560.816000
30.044461	1.978893	1.999194	1561.316000
30.021858	1.978684	1.998717	1561.816000
29.999602	1.978785	1.998365	1562.316000
29.979335	1.979522	1.998039	1562.816000
29.958224	1.980601	1.997488	1563.316000
29.938621	1.981738	1.996920	1563.816000
29.914535	1.983559	1.996482	1564.316000
29.887883	1.985849	1.995998	1564.817000
29.872386	1.988824	1.995512	1565.316000
29.848188	1.992329	1.995001	1565.816000
29.827914	1.995720	1.994548	1566.316000
29.814805	1.999321	1.994094	1566.816000
29.794507	2.003464	1.993463	1567.316000
29.769108	2.007587	1.992921	1567.816000
29.747545	2.012122	1.992539	1568.317000
29.727185	2.017054	1.992141	1568.816000
29.706975	2.022238	1.991538	1569.317000
29.694526	2.027657	1.991277	1569.816000
29.671592	2.033403	1.990989	1570.316000
29.647265	2.039492	1.990345	1570.816000
29.625995	2.046035	1.989767	1571.316000
29.612682	2.052811	1.989113	1571.816000
29.587898	2.059602	1.988377	1572.317000
29.568258	2.066486	1.987585	1572.816000
29.548746	2.073704	1.986762	1573.317000
29.531604	2.081322	1.985979	1573.816000
29.511513	2.089296	1.985257	1574.316000
29.489273	2.097395	1.984594	1574.816000
29.467874	2.106124	1.983760	1575.316000
29.442469	2.115661	1.983109	1575.816000
29.427820	2.125464	1.982548	1576.316000
29.405555	2.135254	1.981882	1576.816000
29.380720	2.144509	1.981154	1577.316000
29.366504	2.153772	1.980411	1577.816000
29.346661	2.163255	1.979547	1578.316000
29.321411	2.173169	1.978797	1578.816000
29.306289	2.183853	1.977979	1579.316000
29.284726	2.195091	1.977180	1579.816000
29.265289	2.206246	1.976257	1580.317000
29.244753	2.217352	1.975378	1580.816000
29.222580	2.228257	1.974255	1581.317000
29.203942	2.239400	1.973023	1581.816000
29.179501	2.250646	1.971845	1582.317000
29.155020	2.262482	1.970706	1582.816000
29.138617	2.274957	1.969503	1583.316000
29.120933	2.287766	1.968372	1583.816000
29.101887	2.300413	1.967188	1584.316000
29.081892	2.312716	1.965945	1584.816000
29.061407	2.325003	1.964627	1585.316000
29.040683	2.336881	1.963539	1585.816000
29.012554	2.349089	1.962620	1586.316000
28.998976	2.361530	1.961580	1586.816000
28.978344	2.374585	1.960363	1587.316000
28.950601	2.387698	1.959034	1587.816000
28.931677	2.400987	1.957729	1588.316000
28.906046	2.414281	1.956453	1588.816000
28.888638	2.428354	1.955230	1589.316000
28.875512	2.442195	1.953931	1589.816000
28.849867	2.456010	1.952431	1590.316000
28.827271	2.469995	1.950858	1590.816000
28.806917	2.483784	1.949288	1591.316000
28.784384	2.497381	1.947728	1591.816000
28.763229	2.510918	1.946260	1592.316000
28.747391	2.524516	1.944771	1592.816000
28.728395	2.538052	1.943322	1593.317000
28.703672	2.551008	1.941732	1593.816000
28.683072	2.564304	1.940077	1594.316000
28.662964	2.577570	1.938628	1594.817000
28.646541	2.591020	1.937130	1595.316000
28.629285	2.604449	1.935603	1595.817000
28.603655	2.617564	1.933851	1596.316000
28.586481	2.630137	1.932034	1596.816000
28.565921	2.642241	1.930464	1597.316000
28.547205	2.654224	1.928978	1597.816000
28.529752	2.666483	1.927471	1598.316000
28.507333	2.678739	1.925586	1598.816000
28.483217	2.691158	1.923848	1599.316000
28.462474	2.703533	1.922167	1599.816000
28.437569	2.715937	1.920556	1600.317000
28.414329	2.728660	1.918953	1600.816000
28.395844	2.741628	1.917346	1601.316000
28.380746	2.754420	1.915502	1601.816000
28.361011	2.767395	1.913701	1602.316000
28.339822	2.780077	1.911805	1602.816000
28.319681	2.792075	1.909804	1603.316000
28.299899	2.804108	1.907923	1603.816000
28.286040	2.815838	1.906154	1604.317000
28.265720	2.827253	1.904412	1604.816000
28.244129	2.838380	1.902657	1605.316000
28.224089	2.849531	1.900853	1605.816000
28.206032	2.860425	1.899223	1606.316000
28.187902	2.871200	1.897591	1606.817000
28.167251	2.881626	1.895786	1607.316000
28.145820	2.892080	1.894035	1607.817000
28.117851	2.902262	1.892240	1608.316000
28.102523	2.912617	1.890332	1608.817000
28.087996	2.923095	1.888373	1609.316000
28.067257	2.933507	1.886421	1609.817000
28.042468	2.943365	1.884447	1610.317000
28.023224	2.953267	1.882745	1610.816000
28.001532	2.963132	1.881223	1611.317000
27.980301	2.973162	1.879598	1611.816000
27.962479	2.983029	1.877863	1612.316000
27.940591	2.992612	1.875992	1612.816000
27.918428	3.002518	1.873805	1613.317000
27.898904	3.012601	1.871700	1613.816000
27.879868	3.022552	1.869873	1614.316000
27.861125	3.032096	1.868078	1614.816000
27.841449	3.041290	1.866296	1615.316000
27.818242	3.050226	1.864390	1615.816000
27.795975	3.059307	1.862464	1616.316000
27.781952	3.068347	1.860567	1616.816000
27.762851	3.077216	1.858622	1617.316000
27.745706	3.085911	1.856688	1617.816000
27.724615	3.094149	1.854696	1618.316000
27.700626	3.102703	1.853060	1618.816000
27.680623	3.110890	1.851347	1619.316000
27.668410	3.119121	1.849570	1619.816000
27.646340	3.127609	1.847688	1620.316000
27.625666	3.135694	1.845736	1620.816000
27.602396	3.143150	1.843727	1621.316000
27.585294	3.150646	1.842049	1621.816000
27.560888	3.157640	1.840449	1622.317000
27.542518	3.164532	1.838767	1622.816000
27.522482	3.171447	1.836898	1623.317000
27.507262	3.178431	1.834855	1623.816000
27.490204	3.185378	1.832858	1624.316000
27.463951	3.192658	1.831196	1624.816000
27.444855	3.199666	1.829639	1625.316000
27.420425	3.206838	1.828001	1625.816000
27.400269	3.213501	1.826298	1626.316000
27.381021	3.219977	1.824474	1626.816000
27.363251	3.226510	1.822636	1627.316000
27.343805	3.232955	1.820727	1627.816000
27.328613	3.239258	1.818906	1628.316000
27.306299	3.245504	1.817029	1628.816000
27.285522	3.251598	1.815110	1629.316000
27.267096	3.257209	1.813358	1629.816000
27.245438	3.263207	1.811550	1630.316000
27.218869	3.269088	1.809626	1630.816000
27.204938	3.274990	1.807862	1631.316000
27.188351	3.280706	1.806011	1631.816000
27.163477	3.286289	1.804184	1632.317000
27.144025	3.291749	1.802461	1632.816000
27.123181	3.296624	1.800784	1633.316000
27.105704	3.301732	1.799009	1633.816000
27.080750	3.306896	1.797226	1634.316000
27.060725	3.311781	1.795316	1634.816000
27.036809	3.316583	1.793655	1635.316000
27.019705	3.321375	1.791837	1635.816000
27.001599	3.325958	1.790233	1636.316000
26.988611	3.330795	1.788692	1636.816000
26.964008	3.335248	1.786862	1637.316000
26.937744	3.339765	1.785016	1637.816000
26.925216	3.344041	1.783200	1638.316000
26.905477	3.348026	1.781442	1638.816000
26.886900	3.352154	1.779707	1639.316000
26.860334	3.355769	1.778172	1639.817000
26.846846	3.359114	1.776520	1640.316000
26.823984	3.362011	1.774796	1640.816000
26.809628	3.365161	1.773192	1641.316000
26.785931	3.368750	1.771636	1641.816000
26.774136	3.372150	1.770025	1642.316000
26.750693	3.375594	1.768412	1642.816000
26.731735	3.378989	1.766719	1643.316000
26.706849	3.382163	1.764870	1643.816000
26.688649	3.385030	1.763012	1644.316000
26.667295	3.387877	1.761468	1644.816000
26.645288	3.390556	1.759812	1645.316000
26.619347	3.392955	1.757926	1645.817000
26.607616	3.395072	1.755986	1646.316000
26.590927	3.396853	1.754138	1646.816000
26.566617	3.398657	1.752234	1647.316000
26.549105	3.400326	1.750220	1647.817000
26.531581	3.401636	1.748520	1648.316000
26.513300	3.402892	1.746974	1648.816000
26.495093	3.404511	1.745476	1649.316000
26.476813	3.406101	1.743943	1649.816000
26.452658	3.407480	1.742547	1650.316000
26.431692	3.408799	1.741204	1650.816000
26.411807	3.409882	1.739615	1651.316000
26.391766	3.410931	1.737795	1651.816000
26.362054	3.411980	1.736048	1652.316000
26.343531	3.412409	1.734316	1652.816000
26.322027	3.412621	1.732736	1653.316000
26.302028	3.413023	1.731070	1653.816000
26.288989	3.413255	1.729514	1654.317000
26.272764	3.413285	1.727925	1654.816000
26.253393	3.413394	1.726174	1655.317000
26.233613	3.413589	1.724496	1655.816000
26.214743	3.413660	1.722827	1656.316000
26.193941	3.413692	1.721175	1656.817000
26.173349	3.413580	1.719591	1657.316000
26.151715	3.413293	1.718095	1657.816000
26.132828	3.412594	1.716485	1658.316000
26.110864	3.411576	1.714878	1658.816000
26.094604	3.410569	1.713391	1659.316000
26.074054	3.409662	1.711870	1659.817000
26.053779	3.408399	1.710205	1660.316000
26.031698	3.406992	1.708621	1660.816000
26.010391	3.405412	1.706945	1661.316000
25.989145	3.403772	1.705151	1661.816000
25.968729	3.401752	1.703498	1662.316000
25.948748	3.399761	1.702005	1662.816000
25.931006	3.398016	1.700464	1663.316000
25.912659	3.396043	1.698783	1663.816000
25.892497	3.393845	1.697046	1664.316000
25.864967	3.391601	1.695322	1664.816000
25.846886	3.389271	1.693692	1665.316000
25.827834	3.386463	1.692103	1665.816000
25.809139	3.383370	1.690393	1666.316000
25.786981	3.380659	1.688645	1666.816000
25.767044	3.377766	1.686964	1667.316000
25.747580	3.374508	1.685396	1667.816000
25.725063	3.371160	1.683920	1668.316000
25.704057	3.367585	1.682454	1668.816000
25.685143	3.364330	1.680967	1669.316000
25.665753	3.360880	1.679479	1669.816000
25.644866	3.357033	1.677906	1670.316000
25.627060	3.353089	1.676376	1670.817000
25.609367	3.348846	1.674857	1671.316000
25.589932	3.344388	1.673339	1671.816000
25.567465	3.339842	1.671755	1672.316000
25.547410	3.335127	1.669978	1672.816000
25.525896	3.330457	1.668209	1673.316000
25.503928	3.325731	1.666554	1673.816000
25.487425	3.320752	1.664951	1674.316000
25.464833	3.316133	1.663462	1674.816000
25.446044	3.311380	1.661821	1675.316000
25.425054	3.306255	1.660223	1675.816000
25.402004	3.300670	1.658587	1676.316000
25.381616	3.294983	1.657050	1676.816000
25.359719	3.289164	1.655594	1677.316000
25.342050	3.283440	1.653989	1677.816000
25.323101	3.277650	1.652392	1678.316000
25.302438	3.271646	1.650721	1678.816000
25.280264	3.265337	1.648984	1679.316000
25.262043	3.258365	1.647418	1679.817000
25.240816	3.251210	1.645932	1680.316000
25.221463	3.244070	1.644342	1680.816000
25.202420	3.236947	1.642561	1681.316000
25.181317	3.229702	1.640909	1681.816000
25.161032	3.222383	1.639207	1682.316000
25.138594	3.215087	1.637546	1682.816000
25.119573	3.207689	1.636077	1683.316000
25.097430	3.200225	1.634783	1683.816000
25.075485	3.192460	1.633224	1684.317000
25.055728	3.184130	1.631520	1684.816000
25.037096	3.175366	1.629961	1685.316000
25.015088	3.166330	1.628505	1685.816000
24.990477	3.157002	1.627004	1686.317000
24.968244	3.147337	1.625326	1686.816000
24.948966	3.137653	1.623430	1687.316000
24.928118	3.127998	1.621722	1687.816000
24.907271	3.118144	1.619934	1688.316000
24.882808	3.107989	1.618162	1688.816000
24.862320	3.097365	1.616508	1689.316000
24.846403	3.086562	1.615012	1689.816000
24.826622	3.075790	1.613537	1690.316000
24.808641	3.065017	1.611898	1690.816000
24.790572	3.053874	1.610047	1691.316000
24.769041	3.042263	1.608280	1691.816000
24.750311	3.030712	1.606669	1692.316000
24.727963	3.019176	1.605186	1692.816000
24.707870	3.007355	1.603743	1693.316000
24.688094	2.995061	1.602418	1693.816000
24.666008	2.982462	1.600940	1694.316000
24.648485	2.969740	1.599287	1694.816000
24.619438	2.956816	1.597576	1695.316000
24.602846	2.942740	1.596090	1695.816000
24.585116	2.928307	1.594667	1696.316000
24.565216	2.913938	1.593124	1696.816000
24.544509	2.899639	1.591515	1697.316000
24.516408	2.885103	1.589910	1697.816000
24.499368	2.870325	1.588214	1698.316000
24.485476	2.854825	1.586443	1698.817000
24.464916	2.838855	1.584811	1699.316000
24.444617	2.822494	1.583236	1699.816000
24.422658	2.805633	1.581531	1700.316000
24.397055	2.788685	1.579769	1700.816000
24.374466	2.771933	1.578095	1701.316000
24.361859	2.754606	1.576375	1701.816000
24.337586	2.736523	1.574668	1702.316000
24.320164	2.717764	1.572987	1702.816000
24.303282	2.698439	1.571569	1703.316000
24.283863	2.678529	1.570231	1703.816000
24.264569	2.658252	1.569053	1704.316000
24.244286	2.637793	1.567655	1704.816000
24.224205	2.617168	1.566258	1705.316000
24.202036	2.596254	1.564733	1705.816000
24.183253	2.574624	1.563284	1706.316000
24.163650	2.552257	1.561612	1706.816000
24.134322	2.529589	1.560057	1707.316000
24.109179	2.506421	1.558490	1707.816000
24.092473	2.482019	1.557108	1708.316000
24.074659	2.456690	1.555773	1708.816000
24.052781	2.430512	1.554435	1709.316000
24.027605	2.403329	1.552978	1709.817000
24.008749	2.375451	1.551454	1710.316000
23.986250	2.346867	1.549983	1710.816000
23.968396	2.317515	1.548505	1711.316000
23.951646	2.287187	1.547044	1711.816000
23.935098	2.256335	1.545615	1712.316000
23.910913	2.225400	1.544269	1712.816000
23.889925	2.194290	1.542836	1713.316000
23.869293	2.162678	1.541258	1713.816000
23.851564	2.130516	1.539777	1714.316000
23.830645	2.097920	1.538533	1714.816000
23.806528	2.064833	1.537441	1715.316000
23.790749	2.031226	1.536387	1715.816000
23.769187	1.997057	1.535247	1716.316000
23.747148	1.962366	1.534163	1716.816000
23.727317	1.926518	1.532944	1717.317000
23.707127	1.889603	1.531715	1717.816000
23.688523	1.852584	1.530599	1718.316000
23.665678	1.815203	1.529625	1718.816000
23.643579	1.777351	1.528768	1719.316000
23.622369	1.738787	1.527845	1719.816000
23.607411	1.699442	1.526865	1720.316000
23.584176	1.659821	1.526018	1720.817000
23.561725	1.620018	1.525315	1721.316000
23.540699	1.580236	1.524618	1721.816000
23.523093	1.540280	1.523870	1722.317000
23.500783	1.500264	1.523135	1722.816000
23.481377	1.460448	1.522475	1723.316000
23.461614	1.420668	1.521887	1723.816000
23.442001	1.381176	1.521232	1724.316000
23.424247	1.341973	1.520673	1724.816000
23.404994	1.303343	1.520267	1725.316000
23.381156	1.265543	1.519922	1725.816000
23.363611	1.228228	1.519538	1726.316000
23.340559	1.191427	1.519309	1726.816000
23.321691	1.154945	1.518921	1727.317000
23.309274	1.118755	1.518657	1727.817000
23.285861	1.083324	1.518456	1728.316000
23.269891	1.048541	1.518292	1728.816000
23.247001	1.014412	1.518105	1729.316000
23.223435	0.981457	1.518032	1729.816000
23.207080	0.949470	1.518220	1730.316000
23.189106	0.918421	1.518465	1730.816000
23.168365	0.887946	1.518713	1731.316000
23.150363	0.857934	1.519055	1731.816000
23.125830	0.829136	1.519256	1732.316000
23.106346	0.801298	1.519438	1732.816000
23.085621	0.774128	1.519713	1733.316000
23.065433	0.747793	1.519887	1733.816000
23.043561	0.721695	1.520007	1734.316000
23.025913	0.696430	1.520225	1734.816000
23.003185	0.671837	1.520522	1735.316000
22.981342	0.648115	1.520655	1735.816000
22.965261	0.625079	1.520723	1736.316000
22.947273	0.602495	1.520919	1736.816000
22.922384	0.580530	1.521316	1737.316000
22.903132	0.559110	1.521788	1737.817000
22.885607	0.539230	1.521920	1738.316000
22.869815	0.520697	1.521877	1738.816000
22.849939	0.502779	1.521720	1739.316000
22.827021	0.485484	1.521771	1739.816000
22.804954	0.468852	1.522180	1740.316000
22.790585	0.452941	1.522557	1740.816000
22.767179	0.437764	1.522644	1741.316000
22.745077	0.423196	1.522441	1741.816000
22.726520	0.408905	1.522476	1742.316000
22.706667	0.394997	1.522650	1742.816000
22.693750	0.381844	1.522883	1743.317000
22.668025	0.369195	1.523115	1743.816000
22.646373	0.357124	1.523261	1744.316000
22.628173	0.345741	1.523310	1744.816000
22.611537	0.334513	1.523356	1745.316000
22.586702	0.323523	1.523267	1745.816000
22.563682	0.312903	1.523168	1746.316000
22.544734	0.303316	1.523112	1746.816000
22.528213	0.294089	1.523052	1747.316000
22.508525	0.284996	1.523133	1747.816000
22.483023	0.276508	1.523389	1748.316000
22.466536	0.268243	1.523645	1748.817000
22.447686	0.260358	1.523667	1749.316000
22.422800	0.253001	1.523706	1749.816000
22.397315	0.246259	1.523583	1750.316000
22.377939	0.239419	1.523410	1750.816000
22.361949	0.232621	1.523341	1751.316000
22.341980	0.225953	1.523388	1751.816000
22.319322	0.219639	1.523379	1752.316000
22.306780	0.213880	1.523217	1752.816000
22.279155	0.208480	1.523015	1753.316000
22.257210	0.203140	1.523046	1753.816000
22.239572	0.197955	1.523055	1754.316000
22.228056	0.192888	1.522978	1754.816000
22.205430	0.188207	1.522986	1755.316000
22.181176	0.184014	1.522959	1755.816000
22.157603	0.180480	1.522866	1756.316000
22.140714	0.177361	1.522871	1756.816000
22.122421	0.173777	1.522971	1757.316000
22.106283	0.170981	1.522932	1757.816000
22.087610	0.168469	1.522815	1758.316000
22.069732	0.166438	1.523013	1758.817000
22.057943	0.165498	1.523093	1759.316000
22.035790	0.164596	1.523176	1759.816000
22.012528	0.164046	1.523373	1760.316000
21.993272	0.164659	1.523570	1760.816000
21.971043	0.166316	1.523627	1761.316000
21.951331	0.168890	1.523537	1761.816000
21.931810	0.172164	1.523234	1762.316000
21.908127	0.176166	1.522979	1762.816000
21.889391	0.181249	1.522910	1763.316000
21.868005	0.187765	1.522910	1763.817000
21.848233	0.195186	1.523043	1764.316000
21.831006	0.203247	1.523013	1764.816000
21.811559	0.212717	1.522853	1765.316000
21.789951	0.223464	1.522557	1765.816000
21.774399	0.235550	1.522158	1766.316000
21.752798	0.248490	1.521919	1766.816000
21.732747	0.262054	1.521750	1767.316000
21.715575	0.276044	1.521620	1767.816000
21.694913	0.290517	1.521280	1768.316000
21.667359	0.306207	1.520847	1768.816000
21.646485	0.323275	1.520469	1769.316000
21.631636	0.341502	1.519757	1769.816000
21.611020	0.360679	1.518992	1770.316000
21.586836	0.380819	1.518275	1770.816000
21.565037	0.401594	1.517542	1771.316000
21.548105	0.423210	1.516786	1771.816000
21.528844	0.445617	1.515875	1772.316000
21.505283	0.468536	1.514883	1772.816000
21.486362	0.492324	1.513584	1773.316000
21.470233	0.516859	1.512139	1773.816000
21.451759	0.541533	1.510925	1774.316000
21.433309	0.566128	1.509590	1774.816000
21.412877	0.590850	1.508417	1775.316000
21.390223	0.615404	1.507354	1775.816000
21.366472	0.640206	1.506096	1776.316000
21.351084	0.666016	1.504719	1776.816000
21.331348	0.692482	1.503063	1777.316000
21.312042	0.719439	1.501458	1777.816000
21.291159	0.746497	1.499917	1778.316000
21.271355	0.773115	1.498421	1778.816000
21.245041	0.799593	1.496847	1779.316000
21.227799	0.826512	1.495066	1779.817000
21.206610	0.853943	1.493107	1780.316000
21.187790	0.881318	1.491017	1780.816000
21.167820	0.908422	1.488906	1781.316000
21.149358	0.935528	1.486773	1781.816000
21.129626	0.962222	1.484623	1782.316000
21.108392	0.988631	1.482452	1782.816000
21.091870	1.014554	1.480379	1783.316000
21.071002	1.040023	1.478349	1783.817000
21.048004	1.064861	1.476290	1784.316000
21.022755	1.089409	1.474188	1784.816000
21.005630	1.113514	1.472012	1785.316000
20.991518	1.137564	1.469699	1785.816000
20.974369	1.161596	1.467572	1786.316000
20.952508	1.184775	1.465548	1786.816000
20.933014	1.206891	1.463458	1787.316000
20.912192	1.228626	1.461292	1787.816000
20.894193	1.249992	1.459146	1788.316000
20.875543	1.270799	1.456809	1788.816000
20.855119	1.290900	1.454399	1789.317000
20.835493	1.310209	1.452091	1789.816000
20.815964	1.328939	1.449766	1790.316000
20.795537	1.347592	1.447511	1790.816000
20.774397	1.365955	1.445411	1791.316000
20.752096	1.384090	1.443295	1791.816000
20.731571	1.401931	1.440973	1792.316000
20.712106	1.419005	1.438528	1792.816000
20.692145	1.435746	1.436375	1793.316000
20.674747	1.452736	1.434173	1793.816000
20.652523	1.469772	1.432007	1794.317000
20.630844	1.486228	1.430036	1794.816000
20.615176	1.502483	1.427967	1795.316000
20.595788	1.518701	1.425665	1795.816000
20.574902	1.534446	1.423250	1796.316000
20.556179	1.549948	1.420815	1796.816000
20.536984	1.565453	1.418524	1797.316000
20.515778	1.580947	1.416276	1797.816000
20.495164	1.596254	1.413811	1798.317000
20.470733	1.610909	1.411457	1798.816000
20.451084	1.625543	1.409026	1799.317000
20.433177	1.640423	1.406518	1799.816000
20.415472	1.655465	1.404226	1800.316000
20.393556	1.670509	1.402074	1800.816000
20.375484	1.685431	1.399853	1801.316000
20.354378	1.700166	1.397684	1801.817000
20.337938	1.714411	1.395727	1802.316000
20.314426	1.728600	1.393727	1802.816000
20.297696	1.742621	1.391775	1803.316000
20.280670	1.756604	1.389879	1803.816000
20.260452	1.770714	1.387853	1804.316000
20.237926	1.784325	1.385527	1804.816000
20.218536	1.797279	1.383150	1805.316000
20.199420	1.810338	1.381015	1805.816000
20.180015	1.823243	1.378874	1806.316000
20.158195	1.835994	1.376822	1806.816000
20.135971	1.848368	1.374994	1807.316000
20.115738	1.859961	1.373074	1807.816000
20.096152	1.871433	1.370957	1808.316000
20.077102	1.883394	1.368517	1808.816000
20.055592	1.895540	1.366072	1809.317000
20.035911	1.907131	1.363876	1809.816000
20.009887	1.918473	1.361833	1810.316000
19.986002	1.930013	1.359961	1810.816000
19.971531	1.941108	1.358164	1811.316000
19.953647	1.951480	1.356239	1811.816000
19.929535	1.961901	1.354261	1812.316000
19.909650	1.972706	1.352129	1812.816000
19.894427	1.983015	1.349945	1813.316000
19.874426	1.992787	1.347711	1813.816000
19.849595	2.002377	1.345592	1814.316000
19.828819	2.011830	1.343642	1814.817000
19.812421	2.021283	1.341657	1815.316000
19.792601	2.030164	1.339577	1815.816000
19.772628	2.038723	1.337506	1816.317000
19.754777	2.047204	1.335431	1816.816000
19.736740	2.055308	1.333461	1817.316000
19.712985	2.062986	1.331517	1817.816000
19.689490	2.070219	1.329658	1818.316000
19.668213	2.077154	1.327697	1818.816000
19.649461	2.083778	1.325790	1819.316000
19.624166	2.090564	1.323953	1819.816000
19.609673	2.097180	1.322106	1820.316000
19.589151	2.103415	1.320360	1820.816000
19.564997	2.109317	1.318544	1821.316000
19.541367	2.115122	1.316508	1821.816000
19.522253	2.120553	1.314389	1822.316000
19.501569	2.125779	1.312499	1822.816000
19.486661	2.131345	1.310576	1823.316000
19.467868	2.136762	1.308713	1823.816000
19.449299	2.141765	1.306912	1824.316000
19.421908	2.146148	1.305261	1824.816000
19.408513	2.150852	1.303595	1825.317000
19.389192	2.155119	1.301848	1825.816000
19.358707	2.159189	1.300022	1826.316000
19.334552	2.163552	1.298181	1826.816000
19.313864	2.167990	1.296237	1827.316000
19.296429	2.172104	1.294301	1827.816000
19.277191	2.175641	1.292427	1828.316000
19.255403	2.178608	1.290778	1828.816000
19.231891	2.181256	1.289211	1829.316000
19.210614	2.183510	1.287452	1829.816000
19.189359	2.185252	1.285808	1830.316000
19.170725	2.186921	1.283897	1830.816000
19.148952	2.188473	1.282054	1831.316000
19.129718	2.190006	1.280297	1831.816000
19.107031	2.191087	1.278498	1832.316000
19.086511	2.191783	1.276880	1832.816000
19.066785	2.192643	1.275298	1833.316000
19.043491	2.193081	1.273682	1833.816000
19.022095	2.193556	1.272076	1834.316000
19.002009	2.194002	1.270454	1834.817000
18.979071	2.193768	1.268700	1835.316000
18.956482	2.193307	1.267061	1835.816000
18.932584	2.192831	1.265374	1836.316000
18.913763	2.192091	1.263690	1836.816000
18.894526	2.191501	1.261873	1837.317000
18.874318	2.190266	1.260091	1837.816000
18.852682	2.188617	1.258313	1838.317000
18.829979	2.186991	1.256666	1838.816000
18.813291	2.185539	1.255178	1839.316000
18.792474	2.183768	1.253680	1839.816000
18.772024	2.181543	1.252182	1840.316000
18.753677	2.179381	1.250731	1840.816000
18.732565	2.177173	1.249272	1841.316000
18.715381	2.175063	1.247834	1841.816000
18.696054	2.172802	1.246353	1842.316000
18.676776	2.170317	1.244750	1842.817000
18.653828	2.167785	1.243325	1843.316000
18.632244	2.165380	1.242060	1843.816000
18.609598	2.162819	1.240657	1844.316000
18.588577	2.160123	1.239083	1844.816000
18.570450	2.157516	1.237606	1845.316000
18.549992	2.154843	1.236170	1845.816000
18.529846	2.152173	1.234867	1846.316000
18.511383	2.149470	1.233639	1846.816000
18.488239	2.146566	1.232384	1847.316000
18.466171	2.143616	1.231230	1847.816000
18.446476	2.140642	1.229860	1848.317000
18.423147	2.137542	1.228523	1848.816000
18.402694	2.134504	1.227173	1849.316000
18.381049	2.131830	1.225834	1849.816000
18.361885	2.129021	1.224488	1850.317000
18.340625	2.126071	1.223108	1850.817000
18.319742	2.123089	1.221659	1851.316000
18.304474	2.120163	1.220287	1851.817000
18.287380	2.117287	1.218890	1852.316000
18.264545	2.114698	1.217518	1852.816000
18.241539	2.112236	1.216244	1853.316000
18.221759	2.110076	1.215145	1853.816000
18.201924	2.107644	1.214102	1854.316000
18.178901	2.104944	1.212976	1854.816000
18.158622	2.102151	1.211814	1855.316000
18.135069	2.099418	1.210553	1855.816000
18.115625	2.096931	1.209161	1856.316000
18.099200	2.094438	1.207940	1856.816000
18.084744	2.092427	1.206766	1857.316000
18.059222	2.090259	1.205680	1857.816000
18.035452	2.088049	1.204546	1858.316000
18.020037	2.086209	1.203475	1858.816000
18.001670	2.084316	1.202313	1859.316000
17.981244	2.082314	1.201245	1859.816000
17.955931	2.080593	1.200297	1860.317000
17.934945	2.078944	1.199188	1860.816000
17.917312	2.077648	1.197938	1861.316000
17.900786	2.076102	1.196590	1861.817000
17.881429	2.075030	1.195437	1862.316000
17.855205	2.074081	1.194310	1862.817000
17.832841	2.073418	1.193139	1863.316000
17.812238	2.073185	1.191889	1863.816000
17.791788	2.072800	1.190353	1864.316000
17.772425	2.072418	1.188909	1864.816000
17.752971	2.072178	1.187676	1865.316000
17.736162	2.072101	1.186512	1865.816000
17.718112	2.071855	1.185391	1866.316000
17.691257	2.071639	1.184233	1866.816000
17.667944	2.071543	1.183092	1867.316000
17.647842	2.071600	1.181940	1867.816000
17.631444	2.071624	1.180584	1868.316000
17.607686	2.071291	1.179444	1868.816000
17.591945	2.071027	1.178193	1869.316000
17.565722	2.070948	1.176990	1869.816000
17.545896	2.071095	1.175659	1870.317000
17.528228	2.071223	1.174294	1870.816000
17.511129	2.071717	1.172971	1871.316000
17.490369	2.071946	1.171612	1871.816000
17.465598	2.072106	1.170120	1872.316000
17.445255	2.071911	1.168791	1872.816000
17.424205	2.071618	1.167477	1873.316000
17.410376	2.071356	1.166104	1873.816000
17.387468	2.071125	1.164733	1874.316000
17.366167	2.070777	1.163387	1874.816000
17.345277	2.070515	1.162096	1875.316000
17.326969	2.070591	1.160691	1875.817000
17.307785	2.070582	1.159233	1876.316000
17.287561	2.070505	1.157807	1876.816000
17.264471	2.070409	1.156505	1877.316000
17.250454	2.070243	1.155195	1877.816000
17.233987	2.070042	1.153977	1878.316000
17.208468	2.070209	1.152723	1878.816000
17.186855	2.070159	1.151475	1879.317000
17.165152	2.069945	1.150137	1879.816000
17.152595	2.069577	1.148682	1880.316000
17.130728	2.068864	1.147258	1880.816000
17.103181	2.068177	1.145782	1881.316000
17.085556	2.067708	1.144182	1881.816000
17.068622	2.066893	1.142491	1882.316000
17.044726	2.065569	1.140997	1882.816000
17.024284	2.064210	1.139571	1883.316000
17.004016	2.062763	1.138098	1883.816000
16.989496	2.061220	1.136843	1884.316000
16.968328	2.059377	1.135379	1884.816000
16.942720	2.057161	1.133965	1885.316000
16.928052	2.054934	1.132333	1885.817000
16.912440	2.052696	1.130628	1886.316000
16.890179	2.050648	1.128931	1886.816000
16.869028	2.048244	1.127209	1887.316000
16.845165	2.045746	1.125612	1887.816000
16.826319	2.043042	1.124208	1888.316000
16.803913	2.040098	1.122893	1888.816000
16.779659	2.037048	1.121486	1889.316000
16.762899	2.033634	1.119974	1889.816000
16.749268	2.029799	1.118279	1890.316000
16.726688	2.025972	1.116646	1890.816000
16.709120	2.021392	1.114967	1891.316000
16.698584	2.016648	1.113304	1891.816000
16.674838	2.012144	1.111658	1892.316000
16.652753	2.007530	1.110225	1892.816000
16.637521	2.002423	1.108806	1893.316000
16.617483	1.997620	1.107386	1893.816000
16.590761	1.992768	1.105966	1894.316000
16.571042	1.987313	1.104514	1894.816000
16.552643	1.981374	1.102973	1895.316000
16.533260	1.974803	1.101475	1895.817000
16.513184	1.967723	1.099952	1896.316000
16.494529	1.960463	1.098448	1896.816000
16.471390	1.953221	1.096948	1897.316000
16.453285	1.945960	1.095585	1897.816000
16.432460	1.938384	1.094401	1898.316000
16.410570	1.930620	1.092995	1898.816000
16.394149	1.922133	1.091515	1899.317000
16.370101	1.912855	1.090032	1899.816000
16.343692	1.903078	1.088293	1900.317000
16.326877	1.892524	1.086507	1900.816000
16.308849	1.881646	1.084884	1901.317000
16.291745	1.870899	1.083178	1901.816000
16.267991	1.859559	1.081738	1902.316000
16.246757	1.847620	1.080316	1902.816000
16.230675	1.835311	1.078874	1903.316000
16.210120	1.822657	1.077542	1903.816000
16.182389	1.809819	1.076148	1904.316000
16.167523	1.796554	1.074561	1904.817000
16.146082	1.782792	1.072789	1905.316000
16.125759	1.768583	1.071232	1905.817000
16.103676	1.754027	1.069625	1906.316000
16.083564	1.738856	1.067867	1906.817000
16.066194	1.722883	1.066037	1907.316000
16.046702	1.706374	1.064288	1907.816000
16.018018	1.689298	1.062696	1908.316000
15.999731	1.671887	1.061301	1908.816000
15.979592	1.653593	1.059801	1909.316000
15.959895	1.634464	1.058415	1909.816000
15.943205	1.614365	1.057039	1910.316000
15.922696	1.593783	1.055725	1910.816000
15.906392	1.572524	1.054298	1911.316000
15.883424	1.550937	1.052760	1911.816000
15.863773	1.529843	1.051328	1912.317000
15.841235	1.508321	1.049882	1912.816000
15.817300	1.485893	1.048590	1913.316000
15.801825	1.463450	1.047243	1913.816000
15.783172	1.441786	1.045813	1914.316000
15.762363	1.416409	1.044634	1914.816000
15.741389	1.388654	1.043460	1915.316000
15.719678	1.361629	1.042118	1915.817000
15.700553	1.335158	1.040781	1916.316000
15.678794	1.306754	1.039803	1916.816000
15.660429	1.277459	1.038873	1917.316000
15.639306	1.247532	1.037868	1917.816000
15.620159	1.216737	1.036765	1918.316000
15.597693	1.185546	1.035672	1918.816000
15.578371	1.154199	1.034501	1919.316000
15.558901	1.122283	1.033308	1919.816000
15.541409	1.089405	1.032207	1920.316000
15.516693	1.055080	1.031248	1920.816000
15.498049	1.016570	1.030674	1921.317000
15.478225	0.979932	1.029871	1921.816000
15.462894	0.945433	1.028953	1922.316000
15.443898	0.911495	1.027896	1922.816000
15.420975	0.877492	1.026775	1923.316000
15.397399	0.843389	1.025717	1923.816000
15.373820	0.809110	1.024869	1924.316000
15.360444	0.774055	1.024127	1924.816000
15.343896	0.738697	1.023553	1925.316000
15.323792	0.703437	1.022866	1925.817000
15.303362	0.669334	1.022355	1926.316000
15.283389	0.636796	1.022071	1926.816000
15.257695	0.604969	1.021870	1927.316000
15.243350	0.573637	1.021778	1927.816000
15.222898	0.543016	1.021772	1928.317000
15.201232	0.513820	1.021745	1928.816000
15.178478	0.485745	1.021792	1929.316000
15.163056	0.458970	1.021880	1929.816000
15.140873	0.433210	1.021956	1930.316000
15.117680	0.408375	1.022218	1930.816000
15.099979	0.384936	1.022637	1931.317000
15.082724	0.363023	1.022860	1931.816000
15.059974	0.342306	1.022994	1932.316000
15.035664	0.322628	1.022995	1932.817000
15.019399	0.304382	1.023048	1933.316000
15.000076	0.287114	1.022930	1933.816000
14.981030	0.270940	1.022726	1934.316000
14.956942	0.255723	1.022719	1934.816000
14.938633	0.241867	1.022730	1935.316000
14.918792	0.229141	1.022805	1935.816000
14.895162	0.217465	1.023018	1936.316000
14.878170	0.206856	1.023079	1936.816000
14.854717	0.197098	1.022951	1937.316000
14.836110	0.187794	1.022891	1937.817000
14.817375	0.179403	1.022930	1938.316000
14.792864	0.172252	1.022935	1938.816000
14.773447	0.166522	1.022921	1939.317000
14.756324	0.162178	1.022911	1939.816000
14.738035	0.159051	1.023093	1940.316000
14.716264	0.157377	1.023179	1940.816000
14.695267	0.157696	1.023176	1941.317000
14.675597	0.159663	1.023058	1941.816000
14.649922	0.163163	1.022855	1942.316000
14.634932	0.169088	1.022692	1942.816000
14.616172	0.176622	1.022767	1943.317000
14.591525	0.186361	1.022773	1943.816000
14.569829	0.196076	1.022836	1944.316000
14.545594	0.208166	1.022650	1944.816000
14.524190	0.223091	1.022361	1945.316000
14.505947	0.240187	1.021972	1945.816000
14.487596	0.259042	1.021612	1946.316000
14.469981	0.278811	1.021034	1946.816000
14.454720	0.299207	1.020376	1947.316000
14.434025	0.319851	1.019552	1947.816000
14.415632	0.340458	1.018688	1948.316000
14.396105	0.360989	1.017603	1948.816000
14.375488	0.381138	1.016384	1949.316000
14.355426	0.401240	1.015105	1949.816000
14.332743	0.421416	1.013806	1950.317000
14.311780	0.441862	1.012590	1950.816000
14.288571	0.462833	1.011224	1951.316000
14.268061	0.484400	1.009806	1951.816000
14.243657	0.506807	1.008118	1952.316000
14.223403	0.529777	1.006447	1952.816000
14.206508	0.553385	1.004527	1953.317000
14.182049	0.577330	1.002521	1953.817000
14.162188	0.601517	1.000623	1954.316000
14.142455	0.625974	0.998620	1954.816000
14.121138	0.650271	0.996440	1955.316000
14.099944	0.674095	0.994140	1955.816000
14.079714	0.698199	0.991997	1956.316000
14.061715	0.722090	0.989849	1956.817000
14.042818	0.745757	0.987748	1957.316000
14.021852	0.768008	0.985538	1957.816000
14.001459	0.791734	0.982850	1958.317000
13.983289	0.816211	0.980079	1958.817000
13.965298	0.838833	0.977605	1959.316000
13.943842	0.857655	0.975576	1959.816000
13.921272	0.876957	0.973341	1960.316000
13.901118	0.896225	0.971154	1960.816000
13.884165	0.915009	0.968984	1961.317000
13.861966	0.933626	0.966744	1961.816000
13.839232	0.950858	0.964730	1962.317000
13.817867	0.968028	0.962750	1962.816000
13.800476	0.985744	0.960620	1963.316000
13.778897	1.003597	0.958279	1963.816000
13.758125	1.021100	0.956069	1964.316000
13.737296	1.038593	0.954251	1964.816000
13.718514	1.055516	0.952497	1965.316000
13.696441	1.072946	0.950427	1965.816000
13.674484	1.090688	0.948276	1966.316000
13.653759	1.108935	0.946013	1966.817000
13.633849	1.126504	0.943875	1967.316000
13.614749	1.143102	0.941805	1967.816000
13.595520	1.159795	0.939869	1968.316000
13.576492	1.176336	0.937974	1968.816000
13.556682	1.191058	0.936154	1969.316000
13.537258	1.204713	0.934467	1969.816000
13.517930	1.220057	0.932550	1970.316000
13.497354	1.238823	0.930211	1970.816000
13.476404	1.257498	0.927884	1971.316000
13.455319	1.273534	0.925818	1971.816000
13.435259	1.288720	0.923787	1972.316000
13.415439	1.303460	0.921713	1972.816000
13.396875	1.317550	0.919555	1973.316000
13.376004	1.330570	0.917527	1973.816000
13.355611	1.344246	0.915496	1974.316000
13.335901	1.356652	0.913695	1974.816000
13.315951	1.367344	0.912101	1975.316000
13.294829	1.377778	0.910333	1975.816000
13.274199	1.388043	0.908570	1976.316000
13.251810	1.398702	0.906816	1976.817000
13.231219	1.409629	0.905030	1977.316000
13.212616	1.418955	0.903502	1977.816000
13.191891	1.426675	0.902227	1978.316000
13.173226	1.434727	0.900701	1978.817000
13.155042	1.443251	0.898903	1979.316000
13.135337	1.450358	0.897039	1979.816000
13.113931	1.458688	0.894967	1980.316000
13.090883	1.466637	0.893012	1980.816000
13.071069	1.474101	0.891190	1981.316000
13.053031	1.481351	0.889419	1981.816000
13.032486	1.487867	0.887728	1982.316000
13.011026	1.493663	0.886201	1982.816000
12.988770	1.499042	0.884581	1983.316000
12.968390	1.504095	0.883080	1983.816000
12.946591	1.509085	0.881524	1984.316000
12.930679	1.513627	0.879825	1984.816000
12.908945	1.517877	0.877997	1985.316000
12.890796	1.522058	0.876281	1985.816000
12.868142	1.526099	0.874597	1986.316000
12.851406	1.529531	0.873059	1986.816000
12.832544	1.531996	0.871347	1987.316000
12.811105	1.534145	0.869660	1987.816000
12.790036	1.536040	0.868161	1988.316000
12.770377	1.537709	0.866810	1988.816000
12.750798	1.539054	0.865310	1989.316000
12.733196	1.539893	0.863775	1989.816000
12.714038	1.540559	0.862230	1990.316000
12.692774	1.540970	0.860575	1990.816000
12.672142	1.541018	0.858913	1991.316000
12.652175	1.540612	0.857348	1991.816000
12.632602	1.539687	0.855926	1992.316000
12.612497	1.538673	0.854557	1992.816000
12.593674	1.537407	0.853234	1993.316000
12.574115	1.535483	0.851804	1993.816000
12.554977	1.533141	0.850345	1994.316000
12.538877	1.531047	0.848895	1994.816000
12.520568	1.529130	0.847704	1995.316000
12.500488	1.527273	0.846497	1995.816000
12.475192	1.524805	0.845285	1996.316000
12.455542	1.521695	0.844033	1996.816000
12.436688	1.518749	0.842571	1997.316000
12.419482	1.515152	0.841139	1997.816000
12.398523	1.511036	0.839475	1998.316000
12.378818	1.506079	0.837957	1998.816000
12.358401	1.500582	0.836770	1999.316000
12.340451	1.495579	0.835664	1999.816000
12.319833	1.490411	0.834624	2000.316000
12.299116	1.484789	0.833435	2000.816000
12.280608	1.478060	0.832077	2001.317000
12.265211	1.470760	0.830603	2001.816000
12.240506	1.463453	0.829052	2002.317000
12.224687	1.456087	0.827589	2002.816000
12.206815	1.448244	0.826092	2003.317000
12.187901	1.439756	0.824721	2003.816000
12.162070	1.430930	0.823320	2004.316000
12.139423	1.421399	0.821824	2004.816000
12.121796	1.411294	0.820268	2005.316000
12.102964	1.400492	0.818684	2005.816000
12.085147	1.388773	0.817043	2006.316000
12.066107	1.376360	0.815449	2006.816000
12.048465	1.363388	0.813895	2007.316000
12.029214	1.350269	0.812373	2007.816000
12.010449	1.336856	0.810934	2008.316000
11.989385	1.323045	0.809606	2008.817000
11.970249	1.308737	0.808328	2009.316000
11.953171	1.293844	0.807063	2009.816000
11.935869	1.278233	0.805909	2010.317000
11.917426	1.262076	0.804738	2010.816000
11.894556	1.245726	0.803686	2011.316000
11.877209	1.228242	0.802612	2011.816000
11.850384	1.210031	0.801409	2012.317000
11.829791	1.190849	0.800205	2012.816000
11.809915	1.170605	0.798999	2013.316000
11.793103	1.149209	0.797688	2013.816000
11.778232	1.127341	0.796336	2014.316000
11.759993	1.105125	0.795024	2014.816000
11.735891	1.082530	0.793789	2015.316000
11.713910	1.058812	0.792579	2015.817000
11.695165	1.034162	0.791415	2016.316000
11.674091	1.008239	0.790353	2016.817000
11.657516	0.981433	0.789168	2017.316000
11.640723	0.953904	0.787859	2017.816000
11.623248	0.925465	0.786588	2018.316000
11.599829	0.896726	0.785345	2018.816000
11.588117	0.867832	0.784122	2019.316000
11.564178	0.838453	0.783062	2019.817000
11.542616	0.808239	0.781949	2020.316000
11.523474	0.776964	0.780738	2020.816000
11.505472	0.744829	0.779493	2021.316000
11.481409	0.712303	0.778457	2021.816000
11.465722	0.679163	0.777718	2022.317000
11.447186	0.645519	0.777046	2022.816000
11.423102	0.611632	0.776335	2023.316000
11.409841	0.577875	0.775712	2023.816000
11.385041	0.544379	0.775142	2024.316000
11.365345	0.511631	0.774719	2024.816000
11.345902	0.479460	0.774302	2025.316000
11.326232	0.448078	0.774018	2025.816000
11.308348	0.417843	0.773852	2026.316000
11.290067	0.388964	0.773619	2026.816000
11.271191	0.362063	0.773373	2027.316000
11.250369	0.337146	0.773104	2027.817000
11.229386	0.313761	0.772943	2028.316000
11.208295	0.291744	0.773049	2028.816000
11.185655	0.271353	0.773155	2029.316000
11.167144	0.252702	0.773080	2029.816000
11.152224	0.235877	0.773129	2030.316000
11.135134	0.220553	0.773146	2030.816000
11.118547	0.206979	0.773191	2031.317000
11.094534	0.195315	0.773280	2031.816000
11.063666	0.185714	0.773148	2032.316000
11.050531	0.178284	0.772982	2032.816000
11.031766	0.173167	0.772849	2033.316000
11.014490	0.171323	0.772714	2033.816000
10.995297	0.172138	0.772674	2034.316000
10.973776	0.175278	0.772644	2034.816000
10.949606	0.181183	0.772377	2035.316000
10.925003	0.188891	0.772336	2035.816000
10.908253	0.199435	0.772255	2036.316000
10.880792	0.212602	0.772013	2036.816000
10.863504	0.227610	0.771520	2037.316000
10.848414	0.244104	0.770807	2037.817000
10.833165	0.261472	0.770102	2038.316000
10.812659	0.278296	0.769248	2038.816000
10.792066	0.295243	0.768119	2039.316000
10.767784	0.312328	0.766699	2039.816000
10.744363	0.330219	0.765259	2040.316000
10.724157	0.349243	0.763611	2040.817000
10.706918	0.368703	0.761917	2041.317000
10.691522	0.388199	0.760201	2041.816000
10.666582	0.407973	0.758538	2042.317000
10.644602	0.428113	0.756797	2042.816000
10.632281	0.448429	0.754863	2043.316000
10.610342	0.468326	0.752895	2043.816000
10.586261	0.488246	0.750996	2044.316000
10.568659	0.508627	0.749080	2044.816000
10.549677	0.529272	0.747036	2045.317000
10.528561	0.549610	0.744922	2045.816000
10.510782	0.569464	0.742751	2046.316000
10.495956	0.588887	0.740688	2046.816000
10.469147	0.608050	0.738738	2047.316000
10.447531	0.627210	0.736749	2047.817000
10.429575	0.646023	0.734866	2048.316000
10.407239	0.664784	0.733125	2048.816000
10.387041	0.683238	0.731239	2049.316000
10.369727	0.701232	0.729247	2049.816000
10.347856	0.719146	0.727248	2050.316000
10.323841	0.737307	0.725148	2050.816000
10.302274	0.755338	0.722982	2051.316000
10.281879	0.773694	0.720591	2051.816000
10.264395	0.791734	0.718320	2052.316000
10.241519	0.809022	0.716039	2052.816000
10.215469	0.825720	0.713877	2053.316000
10.198159	0.842813	0.711810	2053.816000
10.176900	0.859593	0.709693	2054.317000
10.158194	0.876382	0.707702	2054.816000
10.143553	0.892894	0.705753	2055.317000
10.120349	0.908969	0.703903	2055.817000
10.100563	0.924217	0.702150	2056.316000
10.083041	0.938320	0.700507	2056.816000
10.062219	0.951618	0.698969	2057.316000
10.040952	0.964668	0.697295	2057.816000
10.018979	0.977160	0.695566	2058.316000
9.996546	0.989058	0.693688	2058.816000
9.976743	1.000230	0.691884	2059.316000
9.957489	1.010156	0.690038	2059.816000
9.943284	1.019166	0.688175	2060.316000
9.924579	1.027468	0.686335	2060.816000
9.903000	1.034897	0.684455	2061.316000
9.878366	1.041542	0.682611	2061.816000
9.857376	1.047794	0.681041	2062.316000
9.835980	1.053133	0.679413	2062.816000
9.813622	1.057717	0.677695	2063.317000
9.797520	1.061475	0.676105	2063.816000
9.774664	1.064193	0.674481	2064.316000
9.753714	1.065798	0.672959	2064.816000
9.734790	1.066515	0.671427	2065.316000
9.712623	1.066784	0.669893	2065.816000
9.691475	1.066067	0.668306	2066.316000
9.670947	1.063942	0.666617	2066.817000
9.651238	1.060721	0.665017	2067.316000
9.631470	1.056461	0.663457	2067.816000
9.607542	1.051241	0.661845	2068.316000
9.583965	1.045242	0.660248	2068.817000
9.565798	1.037945	0.658771	2069.316000
9.543914	1.029045	0.657314	2069.816000
9.523729	1.019124	0.655808	2070.316000
9.507386	1.008723	0.654318	2070.816000
9.486472	0.997388	0.652792	2071.316000
9.471378	0.984526	0.651148	2071.816000
9.446503	0.970621	0.649640	2072.316000
9.422667	0.955856	0.648203	2072.816000
9.402207	0.939888	0.646865	2073.317000
9.380488	0.923045	0.645639	2073.816000
9.358168	0.904731	0.644241	2074.316000
9.338844	0.884377	0.642693	2074.816000
9.318518	0.862733	0.641225	2075.316000
9.300302	0.839847	0.639905	2075.816000
9.279878	0.816166	0.638874	2076.316000
9.257428	0.791302	0.637656	2076.817000
9.238616	0.765269	0.636312	2077.316000
9.219055	0.737827	0.635003	2077.816000
9.199629	0.708877	0.633784	2078.316000
9.178904	0.679169	0.632614	2078.816000
9.159523	0.648769	0.631493	2079.316000
9.141262	0.617520	0.630425	2079.817000
9.122121	0.585896	0.629626	2080.316000
9.101166	0.553384	0.628843	2080.817000
9.080701	0.520418	0.627990	2081.316000
9.061235	0.487626	0.627202	2081.817000
9.042016	0.455284	0.626365	2082.316000
9.022297	0.423926	0.625574	2082.816000
9.001167	0.394066	0.624798	2083.316000
8.980648	0.365478	0.624160	2083.816000
8.960193	0.338290	0.623883	2084.316000
8.942161	0.312922	0.623710	2084.816000
8.923587	0.289596	0.623382	2085.316000
8.903167	0.268231	0.623207	2085.816000
8.884559	0.249165	0.623290	2086.316000
8.865491	0.232621	0.623294	2086.816000
8.844275	0.218959	0.623365	2087.316000
8.824796	0.208128	0.623212	2087.816000
8.802922	0.200672	0.622936	2088.316000
8.783090	0.196512	0.622735	2088.816000
8.762055	0.195148	0.622589	2089.316000
8.743201	0.196769	0.622296	2089.816000
8.723832	0.201639	0.621975	2090.316000
8.704292	0.209401	0.621489	2090.816000
8.684135	0.219435	0.620871	2091.316000
8.664065	0.231146	0.620040	2091.816000
8.643451	0.244339	0.619276	2092.316000
8.625083	0.258200	0.618332	2092.816000
8.605247	0.272741	0.617192	2093.316000
8.585025	0.288437	0.616075	2093.816000
8.564742	0.305027	0.614697	2094.316000
8.544601	0.322070	0.613264	2094.816000
8.526794	0.339469	0.611742	2095.316000
8.506521	0.357908	0.609943	2095.816000
8.485909	0.376533	0.608088	2096.316000
8.464454	0.394591	0.606076	2096.816000
8.443577	0.412536	0.604096	2097.316000
8.423251	0.430889	0.602228	2097.816000
8.402616	0.449619	0.600183	2098.316000
8.382029	0.468221	0.597968	2098.817000
8.360839	0.486504	0.595762	2099.316000
8.344050	0.504637	0.593527	2099.817000
8.322288	0.522615	0.591438	2100.316000
8.300049	0.540299	0.589543	2100.817000
8.281116	0.557687	0.587572	2101.316000
8.263578	0.574907	0.585614	2101.816000
8.243481	0.591527	0.583586	2102.316000
8.225037	0.607547	0.581729	2102.816000
8.204576	0.622905	0.579938	2103.317000
8.183128	0.637877	0.578095	2103.816000
8.161538	0.652368	0.576203	2104.317000
8.143144	0.665875	0.574265	2104.816000
8.122074	0.679003	0.572310	2105.317000
8.102751	0.691835	0.570431	2105.816000
8.083272	0.703741	0.568516	2106.316000
8.063145	0.714169	0.566536	2106.816000
8.043452	0.723603	0.564708	2107.316000
8.024407	0.732215	0.563061	2107.816000
8.002528	0.739750	0.561330	2108.316000
7.980005	0.746416	0.559684	2108.816000
7.960302	0.751093	0.558021	2109.316000
7.941729	0.754644	0.556485	2109.817000
7.924340	0.756932	0.554986	2110.316000
7.903133	0.757975	0.553395	2110.816000
7.881862	0.757216	0.551930	2111.316000
7.864310	0.754089	0.550575	2111.816000
7.845612	0.749500	0.549130	2112.316000
7.825697	0.743657	0.547568	2112.816000
7.802180	0.736117	0.545847	2113.316000
7.781524	0.726716	0.544191	2113.816000
7.761227	0.715552	0.542709	2114.316000
7.739912	0.702703	0.541324	2114.816000
7.719625	0.688081	0.539898	2115.316000
7.700661	0.671288	0.538587	2115.816000
7.685931	0.652380	0.537310	2116.316000
7.665288	0.632074	0.536112	2116.816000
7.644095	0.610299	0.534945	2117.316000
7.624934	0.587039	0.533869	2117.816000
7.604593	0.562593	0.532650	2118.316000
7.585481	0.536863	0.531453	2118.816000
7.565277	0.509920	0.530445	2119.316000
7.545754	0.481800	0.529454	2119.816000
7.525852	0.452890	0.528507	2120.316000
7.504233	0.424050	0.527646	2120.816000
7.484702	0.395791	0.526589	2121.316000
7.466011	0.368162	0.525494	2121.816000
7.446689	0.342163	0.524605	2122.316000
7.427600	0.317801	0.524168	2122.816000
7.406095	0.295246	0.523815	2123.316000
7.385807	0.274875	0.523472	2123.816000
7.365226	0.256964	0.523093	2124.316000
7.346538	0.241913	0.522706	2124.816000
7.327438	0.230386	0.522323	2125.317000
7.308972	0.222355	0.522048	2125.816000
7.290043	0.217402	0.521747	2126.316000
7.271169	0.215778	0.521410	2126.816000
7.254001	0.217712	0.520964	2127.316000
7.235376	0.222482	0.520388	2127.816000
7.215895	0.229355	0.519704	2128.316000
7.194492	0.238478	0.518894	2128.816000
7.177429	0.249539	0.517922	2129.316000
7.158303	0.261924	0.516801	2129.816000
7.135331	0.275278	0.515446	2130.316000
7.115663	0.289635	0.513856	2130.817000
7.092016	0.304698	0.512375	2131.316000
7.071825	0.320300	0.510888	2131.816000
7.052353	0.336166	0.509316	2132.316000
7.032149	0.352655	0.507499	2132.816000
7.012668	0.369571	0.505615	2133.316000
6.992898	0.386234	0.503832	2133.816000
6.972204	0.403151	0.501869	2134.316000
6.952430	0.419877	0.499735	2134.816000
6.932796	0.436118	0.497565	2135.316000
6.913039	0.451567	0.495436	2135.816000
6.892241	0.466496	0.493605	2136.316000
6.876573	0.480363	0.491902	2136.816000
6.860528	0.493772	0.489955	2137.316000
6.838409	0.506489	0.488189	2137.816000
6.813926	0.518076	0.486472	2138.316000
6.793304	0.528632	0.484783	2138.816000
6.779829	0.538318	0.483135	2139.316000
6.758406	0.546695	0.481456	2139.817000
6.740981	0.554169	0.479613	2140.316000
6.722505	0.560095	0.477535	2140.816000
6.699984	0.564231	0.475626	2141.316000
6.682581	0.566787	0.473959	2141.816000
6.660274	0.567424	0.472455	2142.316000
6.644219	0.566015	0.470978	2142.816000
6.628016	0.562601	0.469419	2143.316000
6.607178	0.557594	0.467971	2143.816000
6.589168	0.550382	0.466624	2144.316000
6.573713	0.540558	0.465406	2144.816000
6.554990	0.528484	0.464201	2145.317000
6.538431	0.514858	0.463062	2145.816000
6.518530	0.499666	0.461932	2146.316000
6.491568	0.482780	0.460883	2146.816000
6.469263	0.464110	0.459758	2147.316000
6.452339	0.443413	0.458510	2147.816000
6.437308	0.421406	0.457241	2148.316000
6.417293	0.398332	0.456272	2148.817000
6.397967	0.375031	0.455418	2149.316000
6.372782	0.352430	0.454684	2149.817000
6.354670	0.330205	0.453942	2150.316000
6.335233	0.309455	0.453274	2150.816000
6.322680	0.290496	0.452740	2151.316000
6.304237	0.273836	0.452220	2151.816000
6.286474	0.259863	0.451562	2152.316000
6.266596	0.248724	0.450836	2152.817000
6.246526	0.241054	0.450312	2153.316000
6.223853	0.236865	0.449746	2153.816000
6.198895	0.235916	0.449104	2154.317000
6.179111	0.237802	0.448411	2154.816000
6.162312	0.242310	0.447534	2155.316000
6.148332	0.249533	0.446528	2155.816000
6.121113	0.258860	0.445458	2156.316000
6.104676	0.269604	0.444300	2156.816000
6.089174	0.281565	0.442875	2157.316000
6.075543	0.294597	0.441298	2157.816000
6.051581	0.308138	0.439769	2158.316000
6.029524	0.321590	0.438338	2158.816000
6.008547	0.335312	0.436996	2159.316000
5.988088	0.349643	0.435377	2159.816000
5.963881	0.364064	0.433706	2160.316000
5.947410	0.378349	0.431836	2160.816000
5.928484	0.391981	0.429827	2161.316000
5.907035	0.404612	0.427820	2161.816000
5.884379	0.416451	0.425858	2162.316000
5.863200	0.426966	0.424166	2162.817000
5.843722	0.436125	0.422478	2163.316000
5.823495	0.443429	0.420575	2163.816000
5.803051	0.449371	0.418525	2164.316000
5.785448	0.453487	0.416592	2164.816000
5.764950	0.455401	0.414901	2165.316000
5.746665	0.455111	0.413180	2165.816000
5.729220	0.452399	0.411429	2166.317000
5.708207	0.447304	0.409955	2166.816000
5.685583	0.439656	0.408575	2167.317000
5.664861	0.429448	0.407264	2167.816000
5.647672	0.416890	0.405923	2168.316000
5.630137	0.402006	0.404521	2168.816000
5.614819	0.385202	0.403360	2169.316000
5.593756	0.367439	0.402340	2169.816000
5.574127	0.349330	0.401472	2170.316000
5.553785	0.331170	0.400714	2170.816000
5.532919	0.313509	0.399915	2171.316000
5.514133	0.297513	0.399242	2171.816000
5.496509	0.283561	0.398604	2172.316000
5.477399	0.272095	0.397908	2172.816000
5.454416	0.263192	0.397280	2173.316000
5.426458	0.257750	0.396549	2173.817000
5.400385	0.255890	0.395952	2174.316000
5.378222	0.256971	0.395187	2174.816000
5.358923	0.260907	0.394239	2175.316000
5.345024	0.267641	0.392904	2175.816000
5.327229	0.276771	0.391609	2176.316000
5.314800	0.287399	0.390181	2176.816000
5.291986	0.298679	0.388611	2177.316000
5.270939	0.310247	0.387025	2177.816000
5.251303	0.322459	0.385403	2178.316000
5.230258	0.334541	0.383740	2178.816000
5.209760	0.346117	0.381880	2179.316000
5.184906	0.357226	0.380001	2179.817000
5.165763	0.367454	0.378339	2180.316000
5.148690	0.376291	0.376770	2180.816000
5.127842	0.383371	0.375026	2181.316000
5.108999	0.388291	0.373255	2181.817000
5.089224	0.391382	0.371493	2182.316000
5.064490	0.392158	0.369685	2182.817000
5.046886	0.390398	0.368119	2183.316000
5.025925	0.386345	0.366505	2183.817000
5.005301	0.379854	0.365178	2184.316000
4.986169	0.371020	0.363876	2184.816000
4.963375	0.360185	0.362513	2185.316000
4.943842	0.347365	0.361125	2185.816000
4.925815	0.333660	0.359893	2186.316000
4.905210	0.319752	0.358754	2186.816000
4.883995	0.306760	0.357791	2187.316000
4.865165	0.295291	0.356933	2187.816000
4.844885	0.285551	0.356211	2188.316000
4.819281	0.278090	0.355582	2188.816000
4.794717	0.273908	0.354723	2189.316000
4.772062	0.273096	0.353842	2189.816000
4.753389	0.275909	0.352805	2190.316000
4.733627	0.281310	0.351542	2190.816000
4.712042	0.288567	0.350003	2191.316000
4.691625	0.297239	0.348363	2191.816000
4.672137	0.307114	0.346697	2192.316000
4.652713	0.317687	0.344964	2192.816000
4.632361	0.327842	0.343383	2193.316000
4.613168	0.337050	0.341830	2193.816000
4.591351	0.345358	0.340214	2194.316000
4.571619	0.351761	0.338418	2194.816000
4.553442	0.356081	0.336743	2195.316000
4.532380	0.357971	0.335064	2195.816000
4.511117	0.357577	0.333300	2196.316000
4.490419	0.354747	0.331634	2196.816000
4.470319	0.349130	0.330204	2197.316000
4.450363	0.341328	0.329016	2197.816000
4.432574	0.332293	0.328008	2198.316000
4.411963	0.322657	0.326908	2198.816000
4.389679	0.313184	0.325810	2199.316000
4.369111	0.304598	0.324765	2199.816000
4.348767	0.297254	0.323803	2200.316000
4.330505	0.292470	0.322867	2200.816000
4.313515	0.289929	0.321631	2201.316000
4.292659	0.289644	0.320367	2201.816000
4.271905	0.291966	0.318948	2202.316000
4.251930	0.296179	0.317495	2202.817000
4.232571	0.302238	0.316055	2203.316000
4.214099	0.309383	0.314665	2203.816000
4.194786	0.317235	0.313221	2204.316000
4.175161	0.324954	0.311753	2204.816000
4.154751	0.331876	0.310246	2205.317000
4.135863	0.337254	0.308742	2205.816000
4.114602	0.340774	0.307336	2206.316000
4.092080	0.342607	0.305799	2206.816000
4.071770	0.342317	0.304285	2207.317000
4.053315	0.339715	0.302684	2207.816000
4.034741	0.335345	0.301086	2208.316000
4.015631	0.329128	0.299703	2208.816000
3.996701	0.322382	0.298563	2209.316000
3.976288	0.315678	0.297689	2209.816000
3.957320	0.309418	0.296666	2210.316000
3.937289	0.304774	0.295505	2210.816000
3.917971	0.302157	0.294339	2211.316000
3.898846	0.301835	0.293017	2211.816000
3.879095	0.303917	0.291645	2212.316000
3.860056	0.307465	0.290345	2212.816000
3.839749	0.312331	0.289030	2213.316000
3.820352	0.318056	0.287822	2213.816000
3.801700	0.324011	0.286472	2214.316000
3.780814	0.329478	0.284935	2214.816000
3.761558	0.333828	0.283298	2215.317000
3.741076	0.336279	0.281660	2215.816000
3.722888	0.336859	0.280227	2216.316000
3.702989	0.335503	0.278929	2216.816000
3.683453	0.332550	0.277832	2217.317000
3.663880	0.328505	0.276775	2217.816000
3.644650	0.324185	0.275749	2218.316000
3.623730	0.319783	0.274528	2218.816000
3.601083	0.316384	0.273231	2219.316000
3.579898	0.314563	0.271708	2219.816000
3.560725	0.314963	0.270450	2220.316000
3.542649	0.317178	0.269271	2220.816000
3.521289	0.320618	0.267989	2221.316000
3.500571	0.324857	0.266644	2221.816000
3.480856	0.329368	0.265275	2222.316000
3.463055	0.333358	0.263922	2222.816000
3.442258	0.336183	0.262303	2223.316000
3.421335	0.337421	0.260638	2223.816000
3.398995	0.336917	0.259264	2224.316000
3.379534	0.335129	0.257919	2224.816000
3.361735	0.332356	0.256620	2225.317000
3.340230	0.329646	0.255383	2225.816000
3.320011	0.327734	0.254151	2226.316000
3.299308	0.326693	0.252704	2226.816000
3.280182	0.326888	0.251229	2227.316000
3.261530	0.328386	0.249840	2227.816000
3.242065	0.330922	0.248569	2228.316000
3.222235	0.334359	0.247153	2228.816000
3.201361	0.337582	0.245656	2229.316000
3.181667	0.339968	0.244270	2229.816000
3.162322	0.341233	0.242720	2230.316000
3.143189	0.341051	0.241222	2230.817000
3.125129	0.339753	0.239828	2231.316000
3.102353	0.337916	0.238553	2231.816000
3.084750	0.336261	0.237307	2232.316000
3.062494	0.335452	0.236188	2232.816000
3.040669	0.335874	0.234897	2233.316000
3.019816	0.337573	0.233520	2233.816000
2.997587	0.340103	0.232057	2234.316000
2.977677	0.342932	0.230694	2234.816000
2.959136	0.345148	0.229428	2235.316000
2.940568	0.346592	0.228119	2235.816000
2.921216	0.347009	0.226827	2236.316000
2.900833	0.346628	0.225603	2236.816000
2.879221	0.346117	0.224295	2237.317000
2.859570	0.345680	0.222879	2237.816000
2.840921	0.345730	0.221541	2238.316000
2.822769	0.346936	0.220217	2238.816000
2.802825	0.349166	0.218958	2239.316000
2.783637	0.351314	0.217441	2239.816000
2.764521	0.353100	0.215994	2240.316000
2.745361	0.353747	0.214391	2240.817000
2.726550	0.353947	0.213052	2241.316000
2.703516	0.353821	0.211805	2241.817000
2.682660	0.353233	0.210569	2242.316000
2.663734	0.353105	0.209507	2242.817000
2.645834	0.353781	0.208319	2243.316000
2.625089	0.355456	0.206942	2243.816000
2.606177	0.357615	0.205516	2244.316000
2.585453	0.359317	0.203978	2244.817000
2.566700	0.360520	0.202714	2245.316000
2.548669	0.360935	0.201558	2245.816000
2.530047	0.361105	0.200169	2246.317000
2.510132	0.361545	0.198759	2246.816000
2.490601	0.362465	0.197467	2247.316000
2.470667	0.363687	0.196241	2247.816000
2.448843	0.365052	0.194988	2248.316000
2.427446	0.366380	0.193818	2248.816000
2.407617	0.367121	0.192514	2249.316000
2.388750	0.367598	0.191089	2249.816000
2.369819	0.368251	0.189778	2250.317000
2.349159	0.369058	0.188425	2250.816000
2.328162	0.370040	0.186944	2251.316000
2.308698	0.371395	0.185452	2251.816000
2.289371	0.372447	0.184140	2252.316000
2.271072	0.373361	0.182938	2252.816000
2.251657	0.374031	0.181642	2253.316000
2.230923	0.374685	0.180429	2253.816000
2.210908	0.375730	0.179082	2254.316000
2.191208	0.377096	0.177624	2254.816000
2.173335	0.378307	0.176234	2255.316000
2.152704	0.379068	0.174763	2255.816000
2.131711	0.380080	0.173412	2256.317000
2.111098	0.381413	0.172034	2256.816000
2.090795	0.382365	0.170671	2257.317000
2.070434	0.383495	0.169403	2257.816000
2.048367	0.384449	0.167960	2258.316000
2.029544	0.385212	0.166430	2258.816000
2.010243	0.385805	0.164980	2259.316000
1.995401	0.386890	0.163647	2259.816000
1.976182	0.388195	0.162280	2260.316000
1.956975	0.389156	0.161046	2260.816000
1.934123	0.390375	0.159807	2261.316000
1.911133	0.391719	0.158415	2261.816000
1.893149	0.392592	0.156987	2262.316000
1.878619	0.393245	0.155721	2262.816000
1.860894	0.393950	0.154534	2263.316000
1.844027	0.395010	0.153281	2263.816000
1.821197	0.396113	0.151843	2264.316000
1.802388	0.397364	0.150537	2264.816000
1.786485	0.398329	0.149163	2265.316000
1.767538	0.399282	0.147817	2265.816000
1.745721	0.400443	0.146524	2266.317000
1.725203	0.401484	0.145164	2266.816000
1.706717	0.402424	0.144045	2267.316000
1.689499	0.403480	0.142914	2267.816000
1.668811	0.404414	0.141688	2268.316000
1.646092	0.405266	0.140454	2268.816000
1.627767	0.406321	0.139056	2269.317000
1.610033	0.407133	0.137617	2269.816000
1.591682	0.407891	0.136241	2270.316000
1.574349	0.408684	0.134861	2270.816000
1.556393	0.409814	0.133442	2271.316000
1.531998	0.411158	0.131956	2271.816000
1.513660	0.412166	0.130544	2272.316000
1.492917	0.413183	0.129407	2272.816000
1.473923	0.414496	0.128406	2273.316000
1.454030	0.415683	0.127220	2273.816000
1.437262	0.416795	0.125919	2274.316000
1.421180	0.417834	0.124519	2274.816000
1.406509	0.418807	0.123266	2275.316000
1.380680	0.420036	0.122057	2275.816000
1.357944	0.421405	0.120943	2276.316000
1.339201	0.422600	0.119666	2276.816000
1.326752	0.423632	0.118408	2277.316000
1.306446	0.424632	0.117108	2277.816000
1.288217	0.425644	0.115708	2278.316000
1.277281	0.426585	0.114351	2278.816000
1.257251	0.427911	0.113057	2279.317000
1.228227	0.429078	0.111876	2279.816000
1.217109	0.430073	0.110723	2280.316000
1.191825	0.431220	0.109395	2280.816000
1.165991	0.432398	0.107983	2281.316000
1.144833	0.433632	0.106593	2281.817000
1.125313	0.434934	0.105221	2282.316000
1.109664	0.436241	0.103919	2282.817000
1.092707	0.437501	0.102679	2283.316000
1.075252	0.438728	0.101465	2283.816000
1.060371	0.439997	0.100083	2284.316000
1.041582	0.441322	0.098589	2284.816000
1.013924	0.442568	0.097208	2285.316000
0.995878	0.443510	0.095986	2285.816000
0.971410	0.444465	0.094828	2286.316000
0.953077	0.445707	0.093542	2286.816000
0.934305	0.447244	0.092187	2287.316000
0.910270	0.448256	0.090733	2287.816000
0.891467	0.449292	0.089460	2288.316000
0.879542	0.450546	0.088277	2288.816000
0.851462	0.451771	0.086852	2289.316000
0.830188	0.452615	0.085329	2289.816000
0.812562	0.453396	0.083894	2290.316000
0.797992	0.454470	0.082479	2290.816000
0.780510	0.455518	0.081007	2291.316000
0.756549	0.456326	0.079626	2291.817000
0.733560	0.457457	0.078353	2292.316000
0.719861	0.458821	0.077149	2292.816000
0.698324	0.460242	0.075948	2293.316000
0.675679	0.461634	0.074660	2293.816000
0.658306	0.462913	0.073223	2294.316000
0.638448	0.463897	0.071839	2294.816000
0.610263	0.464895	0.070628	2295.316000
0.591992	0.465916	0.069399	2295.816000
0.578281	0.466877	0.067895	2296.316000
0.545107	0.468042	0.066427	2296.816000
0.531305	0.469344	0.065214	2297.316000
0.505119	0.470884	0.064018	2297.816000
0.489580	0.472237	0.062788	2298.316000
0.474134	0.473304	0.061474	2298.816000
0.451283	0.474467	0.059940	2299.317000
0.434603	0.475722	0.058329	2299.816000
0.418805	0.476960	0.056953	2300.317000
0.398420	0.478233	0.055811	2300.816000
0.378092	0.479484	0.054764	2301.316000
0.359279	0.480785	0.053660	2301.816000
0.340663	0.482323	0.052407	2302.316000
0.321392	0.483416	0.051084	2302.816000
0.303431	0.484397	0.049804	2303.316000
0.283234	0.485465	0.048663	2303.816000
0.260707	0.486626	0.047593	2304.316000
0.242939	0.487752	0.046461	2304.816000
0.225561	0.488988	0.045223	2305.316000
0.201879	0.489980	0.043981	2305.816000
0.177314	0.491072	0.042715	2306.316000
0.155478	0.491942	0.041526	2306.816000
0.133221	0.493136	0.040387	2307.316000
0.107917	0.493990	0.039195	2307.816000
0.094040	0.494861	0.037724	2308.316000
0.093725	0.496372	0.036123	2308.816000
0.094016	0.497915	0.034624	2309.316000
0.094176	0.498861	0.033502	2309.816000
0.094453	0.499314	0.032593	2310.317000
0.094513	0.499874	0.031813	2310.816000
0.094641	0.500911	0.031051	2311.316000
0.094586	0.501692	0.030406	2311.816000
0.094290	0.501716	0.029806	2312.316000
