Data run started at:  Thursday, October 19, 2017	4:09:49 PM
magnet(A)	lockin1(V)	lockin2(V)	time (sec)
NaN	NaN	NaN	16.071000
0.089453	0.502848	0.027387	16.342000
0.089562	0.502571	0.027366	16.843000
0.089773	0.502269	0.027458	17.342000
0.089529	0.502131	0.027626	17.843000
0.090772	0.502088	0.027714	18.342000
0.092827	0.502332	0.027546	18.842000
0.109301	0.502728	0.027411	19.342000
0.135832	0.503262	0.027451	19.842000
0.159977	0.503631	0.027644	20.342000
0.183782	0.504047	0.027811	20.843000
0.209269	0.504101	0.028039	21.342000
0.230429	0.502858	0.028470	21.842000
0.242572	0.501576	0.029131	22.342000
0.262965	0.501079	0.029951	22.842000
0.287307	0.500509	0.030793	23.342000
0.304455	0.499994	0.031767	23.842000
0.321953	0.499112	0.032921	24.342000
0.340978	0.497954	0.034015	24.842000
0.364190	0.496590	0.034938	25.342000
0.385969	0.495332	0.035798	25.842000
0.407321	0.494310	0.036645	26.342000
0.425315	0.493530	0.037601	26.842000
0.446446	0.492479	0.038730	27.342000
0.464403	0.491193	0.039991	27.842000
0.483902	0.490237	0.041119	28.342000
0.502388	0.489234	0.042197	28.842000
0.525865	0.487939	0.043494	29.342000
0.549054	0.486610	0.044964	29.842000
0.574381	0.485339	0.046306	30.342000
0.587851	0.484346	0.047620	30.842000
0.612625	0.483119	0.049243	31.342000
0.638187	0.481762	0.050854	31.842000
0.657913	0.480493	0.052290	32.342000
0.677414	0.479404	0.053527	32.842000
0.698904	0.478412	0.054922	33.342000
0.718800	0.477234	0.056235	33.842000
0.732958	0.475986	0.057546	34.342000
0.752122	0.474786	0.059017	34.842000
0.781021	0.473720	0.060404	35.342000
0.799585	0.472328	0.061712	35.842000
0.810437	0.470896	0.063062	36.342000
0.837723	0.469523	0.064427	36.842000
0.865394	0.468427	0.065618	37.342000
0.884437	0.467169	0.066833	37.842000
0.894703	0.465817	0.068277	38.342000
0.917506	0.464467	0.069634	38.842000
0.939709	0.463268	0.070997	39.342000
0.958843	0.462320	0.072356	39.842000
0.980598	0.461715	0.073773	40.342000
1.003140	0.460840	0.075169	40.842000
1.031464	0.459567	0.076638	41.342000
1.054745	0.458048	0.078140	41.842000
1.069018	0.456762	0.079604	42.343000
1.086018	0.455701	0.081050	42.842000
1.107575	0.454484	0.082461	43.342000
1.123841	0.453238	0.083867	43.842000
1.144043	0.451758	0.085202	44.342000
1.165750	0.450720	0.086522	44.842000
1.191626	0.449808	0.087862	45.342000
1.211667	0.448654	0.089356	45.842000
1.227463	0.447342	0.091068	46.342000
1.248715	0.445858	0.092798	46.842000
1.269601	0.444571	0.094258	47.342000
1.288327	0.443522	0.095686	47.842000
1.309430	0.442462	0.097069	48.342000
1.327127	0.441167	0.098469	48.842000
1.347414	0.439621	0.099779	49.342000
1.370383	0.438052	0.101184	49.842000
1.393969	0.437047	0.102516	50.342000
1.414038	0.436347	0.103687	50.842000
1.430917	0.435424	0.104786	51.342000
1.454416	0.434408	0.106153	51.842000
1.475068	0.433386	0.107600	52.342000
1.494744	0.432330	0.109180	52.842000
1.514230	0.431091	0.110745	53.342000
1.533042	0.429781	0.112088	53.842000
1.554564	0.428386	0.113274	54.342000
1.574441	0.427104	0.114649	54.842000
1.594507	0.425811	0.116121	55.342000
1.613016	0.424796	0.117548	55.842000
1.632309	0.423730	0.118920	56.342000
1.653168	0.422451	0.120291	56.842000
1.673254	0.421061	0.121689	57.342000
1.694878	0.419728	0.122853	57.842000
1.716072	0.418643	0.124008	58.342000
1.738168	0.417727	0.125181	58.842000
1.759207	0.416661	0.126564	59.342000
1.780950	0.415282	0.128038	59.843000
1.803081	0.414083	0.129424	60.342000
1.824484	0.412940	0.130918	60.842000
1.845035	0.412011	0.132418	61.342000
1.867542	0.410962	0.133922	61.842000
1.888547	0.409814	0.135343	62.342000
1.908859	0.408911	0.136837	62.842000
1.931351	0.407937	0.138407	63.342000
1.953091	0.406636	0.139913	63.842000
1.976027	0.405383	0.141382	64.342000
1.998205	0.404283	0.143071	64.842000
2.020248	0.403022	0.144851	65.342000
2.040823	0.401844	0.146443	65.842000
2.063083	0.400766	0.147655	66.342000
2.084088	0.399499	0.148844	66.842000
2.104155	0.398497	0.150156	67.342000
2.126450	0.397444	0.151649	67.842000
2.149058	0.395879	0.152957	68.342000
2.170498	0.393974	0.154325	68.842000
2.190487	0.392367	0.155849	69.342000
2.211705	0.390794	0.157443	69.843000
2.233318	0.389476	0.158862	70.342000
2.255920	0.388464	0.160222	70.842000
2.278613	0.387475	0.161730	71.342000
2.301004	0.386587	0.163261	71.842000
2.321276	0.385677	0.164577	72.342000
2.341018	0.384437	0.165781	72.842000
2.363832	0.383290	0.167099	73.342000
2.383511	0.382458	0.168546	73.842000
2.403833	0.381679	0.170043	74.342000
2.424670	0.380714	0.171446	74.842000
2.447116	0.379781	0.173033	75.342000
2.468069	0.379322	0.174802	75.842000
2.488751	0.378687	0.176547	76.342000
2.508456	0.377487	0.178121	76.842000
2.529309	0.375951	0.179749	77.342000
2.549919	0.374300	0.181122	77.842000
2.569598	0.372605	0.182564	78.342000
2.589738	0.371251	0.184016	78.842000
2.611459	0.370534	0.185392	79.342000
2.635333	0.370086	0.186666	79.842000
2.655115	0.369378	0.187788	80.342000
2.674643	0.368351	0.189122	80.843000
2.696898	0.367470	0.190493	81.342000
2.717917	0.366423	0.192064	81.842000
2.739406	0.365711	0.193512	82.342000
2.760749	0.365138	0.194794	82.842000
2.781198	0.364761	0.196283	83.343000
2.802668	0.364659	0.197670	83.842000
2.824377	0.364030	0.198898	84.343000
2.844718	0.362969	0.200293	84.842000
2.865750	0.361210	0.201801	85.343000
2.887599	0.359438	0.203154	85.842000
2.908200	0.357708	0.204576	86.342000
2.929513	0.356303	0.206204	86.842000
2.952190	0.355792	0.207745	87.342000
2.972748	0.355813	0.209126	87.842000
2.993976	0.356101	0.210471	88.342000
3.016174	0.355532	0.211902	88.843000
3.038195	0.354273	0.213348	89.342000
3.061081	0.352303	0.214831	89.842000
3.085272	0.349815	0.216136	90.342000
3.108617	0.347819	0.217510	90.843000
3.129156	0.346631	0.218845	91.342000
3.150262	0.346422	0.220222	91.842000
3.171381	0.346944	0.221721	92.342000
3.193276	0.347699	0.223157	92.842000
3.215312	0.347467	0.224621	93.342000
3.238062	0.346389	0.226297	93.842000
3.258408	0.344411	0.227888	94.342000
3.277698	0.341790	0.229331	94.842000
3.299268	0.339330	0.230717	95.342000
3.320782	0.337688	0.231965	95.842000
3.342987	0.337500	0.233125	96.342000
3.365188	0.338807	0.234252	96.842000
3.388110	0.340858	0.235618	97.342000
3.411065	0.342441	0.237201	97.842000
3.433252	0.343141	0.238895	98.342000
3.455276	0.342320	0.240637	98.842000
3.477332	0.340102	0.242363	99.342000
3.500507	0.336934	0.243880	99.842000
3.522888	0.333224	0.245442	100.342000
3.543497	0.329757	0.246920	100.842000
3.564624	0.327565	0.248247	101.342000
3.585983	0.326951	0.249540	101.842000
3.610144	0.328188	0.250999	102.342000
3.634330	0.330620	0.252344	102.843000
3.655657	0.333696	0.253639	103.342000
3.676829	0.336193	0.255135	103.842000
3.698398	0.338004	0.256743	104.342000
3.722421	0.338307	0.258470	104.842000
3.746084	0.336374	0.260204	105.343000
3.766708	0.332602	0.261912	105.842000
3.788972	0.327867	0.263487	106.342000
3.811086	0.322835	0.265091	106.842000
3.833203	0.318100	0.266580	107.342000
3.857990	0.315218	0.267902	107.842000
3.880632	0.314275	0.269102	108.342000
3.902515	0.315367	0.270393	108.842000
3.924545	0.318446	0.271791	109.342000
3.946210	0.323332	0.273157	109.842000
3.970663	0.328570	0.274576	110.342000
3.993912	0.332976	0.276133	110.842000
4.015591	0.335856	0.277831	111.342000
4.037079	0.336311	0.279611	111.842000
4.057356	0.334224	0.281504	112.342000
4.081722	0.329686	0.283528	112.842000
4.105726	0.323528	0.285369	113.342000
4.128126	0.316788	0.286900	113.842000
4.149860	0.310483	0.288229	114.342000
4.171155	0.305662	0.289487	114.842000
4.195956	0.302589	0.290747	115.342000
4.218207	0.302094	0.292175	115.842000
4.239468	0.304200	0.293671	116.342000
4.260364	0.308708	0.294947	116.842000
4.281665	0.315252	0.296204	117.342000
4.303693	0.322435	0.297370	117.842000
4.326417	0.329609	0.298369	118.342000
4.348938	0.335995	0.299706	118.842000
4.370425	0.340144	0.301380	119.342000
4.393375	0.342065	0.303052	119.842000
4.415225	0.341165	0.304761	120.342000
4.438129	0.337530	0.306433	120.842000
4.461053	0.331696	0.308216	121.342000
4.482640	0.324101	0.310003	121.843000
4.505184	0.315569	0.311721	122.342000
4.527141	0.307089	0.313511	122.842000
4.548159	0.299336	0.315056	123.342000
4.570601	0.293176	0.316525	123.842000
4.594052	0.289118	0.317942	124.342000
4.615735	0.288146	0.319462	124.842000
4.636878	0.290367	0.320816	125.343000
4.658596	0.295623	0.321805	125.842000
4.679634	0.303141	0.322722	126.342000
4.703923	0.312469	0.323702	126.842000
4.725728	0.322528	0.324935	127.342000
4.746055	0.332749	0.326223	127.842000
4.766861	0.342137	0.327467	128.342000
4.788223	0.349727	0.328882	128.842000
4.809991	0.354857	0.330533	129.342000
4.830652	0.357516	0.332218	129.842000
4.853168	0.357291	0.333890	130.342000
4.875125	0.354307	0.335692	130.842000
4.897350	0.349038	0.337638	131.342000
4.918620	0.342026	0.339547	131.842000
4.940701	0.333319	0.341551	132.342000
4.962058	0.323251	0.343542	132.842000
4.985028	0.312162	0.345268	133.342000
5.007712	0.300719	0.346836	133.842000
5.029431	0.290129	0.348385	134.342000
5.051454	0.281209	0.349768	134.843000
5.074657	0.274298	0.351140	135.342000
5.098323	0.270748	0.352354	135.842000
5.122514	0.271098	0.353456	136.342000
5.143639	0.275266	0.354352	136.842000
5.165202	0.282945	0.355251	137.343000
5.188668	0.293785	0.356223	137.842000
5.208706	0.307140	0.357324	138.343000
5.231185	0.321744	0.358575	138.842000
5.253731	0.336653	0.359847	139.342000
5.276404	0.350982	0.361146	139.842000
5.299571	0.363931	0.362589	140.342000
5.319199	0.374688	0.364090	140.842000
5.342357	0.383039	0.365701	141.342000
5.365063	0.388420	0.367417	141.842000
5.388802	0.390972	0.369077	142.342000
5.411733	0.390618	0.370887	142.842000
5.437309	0.387521	0.372879	143.342000
5.460953	0.381705	0.374803	143.842000
5.482880	0.373631	0.376770	144.342000
5.505249	0.363530	0.378922	144.842000
5.524582	0.351562	0.380991	145.342000
5.547051	0.338500	0.382910	145.842000
5.568345	0.324556	0.384924	146.342000
5.589601	0.310173	0.386842	146.842000
5.609545	0.296032	0.388492	147.342000
5.630937	0.282899	0.390055	147.842000
5.650974	0.271545	0.391441	148.343000
5.673111	0.262383	0.392716	148.842000
5.695756	0.256018	0.393798	149.342000
5.717218	0.253068	0.394728	149.842000
5.736275	0.254018	0.395509	150.342000
5.758704	0.258874	0.396421	150.842000
5.780313	0.267516	0.397337	151.342000
5.801614	0.279788	0.398144	151.842000
5.822873	0.295062	0.398934	152.342000
5.842647	0.312518	0.399726	152.842000
5.865803	0.331351	0.400497	153.342000
5.886963	0.350894	0.401494	153.842000
5.907396	0.370241	0.402601	154.342000
5.925375	0.388967	0.403731	154.842000
5.948022	0.405960	0.404958	155.342000
5.969474	0.420789	0.406455	155.842000
5.989649	0.433512	0.408011	156.342000
6.011792	0.443655	0.409535	156.842000
6.034177	0.451085	0.411255	157.342000
6.057076	0.455797	0.412907	157.842000
6.074296	0.457548	0.414545	158.342000
6.094226	0.456565	0.416224	158.842000
6.118714	0.453243	0.417957	159.343000
6.137801	0.447790	0.419810	159.842000
6.156920	0.440694	0.421767	160.342000
6.177240	0.432234	0.423715	160.842000
6.200665	0.422348	0.425609	161.342000
6.220065	0.411075	0.427378	161.842000
6.241703	0.398206	0.429256	162.342000
6.262558	0.384181	0.431271	162.842000
6.282306	0.369244	0.433231	163.342000
6.302011	0.353722	0.435172	163.842000
6.320417	0.338097	0.437081	164.342000
6.341065	0.322735	0.439025	164.842000
6.362744	0.307147	0.441049	165.342000
6.386837	0.291403	0.442986	165.842000
6.406926	0.276397	0.444648	166.342000
6.428432	0.262971	0.446043	166.842000
6.450294	0.251668	0.447221	167.342000
6.473638	0.242761	0.448052	167.842000
6.496273	0.236760	0.448749	168.342000
6.516163	0.234340	0.449335	168.842000
6.536664	0.235457	0.449938	169.342000
6.557197	0.240532	0.450564	169.842000
6.579693	0.249668	0.451226	170.342000
6.599595	0.262503	0.451704	170.842000
6.619412	0.278995	0.452397	171.342000
6.639845	0.298863	0.453252	171.842000
6.661339	0.321097	0.454100	172.342000
6.681370	0.345042	0.454891	172.842000
6.703039	0.369702	0.455698	173.342000
6.725678	0.394751	0.456563	173.842000
6.748094	0.419708	0.457501	174.342000
6.768101	0.443766	0.458769	174.842000
6.789207	0.466340	0.460023	175.343000
6.810763	0.487178	0.461257	175.842000
6.833160	0.506108	0.462721	176.342000
6.856017	0.522710	0.464184	176.842000
6.878403	0.536982	0.465684	177.342000
6.899003	0.548695	0.467195	177.842000
6.920178	0.557677	0.468614	178.342000
6.942413	0.564342	0.470058	178.842000
6.963773	0.568671	0.471655	179.342000
6.984507	0.570681	0.473300	179.842000
7.006559	0.570123	0.475004	180.342000
7.030860	0.567074	0.476722	180.842000
7.053074	0.561740	0.478448	181.342000
7.074658	0.554616	0.480385	181.842000
7.096866	0.545634	0.482422	182.342000
7.117802	0.535228	0.484455	182.842000
7.140593	0.523421	0.486315	183.342000
7.163302	0.510672	0.488385	183.842000
7.184959	0.496757	0.490522	184.342000
7.206401	0.481595	0.492664	184.842000
7.228527	0.465634	0.494796	185.342000
7.249364	0.448807	0.497015	185.842000
7.270449	0.430937	0.499347	186.342000
7.293820	0.412679	0.501673	186.842000
7.315505	0.394447	0.503924	187.342000
7.338043	0.376199	0.506117	187.842000
7.358915	0.357884	0.508386	188.342000
7.380132	0.339213	0.510421	188.842000
7.402662	0.320824	0.512217	189.342000
7.426445	0.302926	0.513891	189.842000
7.449313	0.285813	0.515354	190.342000
7.471081	0.269491	0.516665	190.842000
7.492710	0.254122	0.517898	191.342000
7.514922	0.240185	0.518895	191.842000
7.538924	0.228677	0.519735	192.342000
7.562944	0.220602	0.520483	192.842000
7.585187	0.216354	0.521067	193.342000
7.607700	0.216187	0.521894	193.842000
7.630517	0.219989	0.522588	194.342000
7.653379	0.227944	0.523033	194.842000
7.676436	0.240759	0.523455	195.342000
7.698219	0.257835	0.523827	195.842000
7.720645	0.279082	0.524144	196.342000
7.743374	0.303735	0.524823	196.842000
7.765457	0.331062	0.525623	197.342000
7.788924	0.360691	0.526334	197.842000
7.812099	0.391977	0.527019	198.343000
7.834411	0.424199	0.527780	198.842000
7.856347	0.456670	0.528714	199.342000
7.880363	0.488783	0.529771	199.842000
7.904602	0.520126	0.530888	200.342000
7.925916	0.551047	0.532028	200.842000
7.948427	0.580581	0.533067	201.342000
7.970233	0.608217	0.534172	201.843000
7.995887	0.633785	0.535478	202.342000
8.020497	0.657325	0.536937	202.843000
8.040849	0.678386	0.538350	203.342000
8.062080	0.696871	0.539809	203.842000
8.084562	0.713068	0.541455	204.342000
8.108734	0.727106	0.543007	204.842000
8.129965	0.738930	0.544775	205.342000
8.152404	0.748207	0.546798	205.842000
8.173610	0.754899	0.548686	206.342000
8.196774	0.759461	0.550483	206.842000
8.221493	0.762538	0.552121	207.342000
8.244663	0.763436	0.553955	207.842000
8.265549	0.762502	0.556002	208.342000
8.286996	0.759131	0.557976	208.842000
8.309290	0.754052	0.559750	209.342000
8.332029	0.747395	0.561279	209.842000
8.355420	0.739071	0.562812	210.342000
8.377378	0.729351	0.564623	210.842000
8.399476	0.718076	0.566668	211.343000
8.421561	0.705685	0.568658	211.842000
8.443917	0.692118	0.570807	212.342000
8.466910	0.677773	0.572797	212.842000
8.491229	0.662671	0.574839	213.342000
8.512353	0.646853	0.577060	213.842000
8.534578	0.629689	0.579203	214.342000
8.556199	0.611927	0.581376	214.842000
8.578626	0.593746	0.583591	215.342000
8.602006	0.575241	0.585909	215.842000
8.623301	0.556386	0.588318	216.343000
8.644875	0.537245	0.590574	216.842000
8.666937	0.517664	0.593033	217.342000
8.688651	0.497846	0.595441	217.842000
8.710180	0.477792	0.597700	218.342000
8.732446	0.457049	0.599963	218.842000
8.754018	0.435826	0.602293	219.342000
8.774506	0.414793	0.604635	219.842000
8.797047	0.394128	0.607050	220.342000
8.818230	0.373955	0.609209	220.842000
8.839215	0.354004	0.611122	221.342000
8.860100	0.334667	0.612827	221.842000
8.880322	0.315129	0.614540	222.342000
8.901451	0.295736	0.616186	222.842000
8.921490	0.277055	0.617516	223.342000
8.942964	0.259281	0.618591	223.842000
8.964335	0.242570	0.619357	224.342000
8.986643	0.227672	0.620106	224.842000
9.008367	0.214804	0.620806	225.342000
9.029828	0.204653	0.621210	225.842000
9.050418	0.197468	0.621522	226.342000
9.073230	0.193471	0.621931	226.842000
9.097205	0.193488	0.622335	227.343000
9.118429	0.197308	0.622662	227.842000
9.138579	0.204261	0.623004	228.342000
9.159205	0.214832	0.623322	228.842000
9.182846	0.229173	0.623449	229.343000
9.207588	0.246971	0.623535	229.842000
9.229482	0.268118	0.623839	230.342000
9.251668	0.292263	0.624140	230.842000
9.274414	0.319536	0.624514	231.342000
9.297524	0.349800	0.624815	231.842000
9.321518	0.382040	0.625284	232.342000
9.342990	0.416048	0.625943	232.842000
9.366028	0.451407	0.626747	233.342000
9.388899	0.487447	0.627608	233.842000
9.411710	0.524051	0.628402	234.342000
9.436407	0.560661	0.629248	234.842000
9.458442	0.597070	0.630346	235.342000
9.481317	0.632850	0.631425	235.842000
9.502280	0.667713	0.632442	236.342000
9.525529	0.701374	0.633574	236.843000
9.548727	0.733879	0.634980	237.342000
9.572835	0.764752	0.636323	237.842000
9.595577	0.794182	0.637494	238.342000
9.617787	0.821960	0.638818	238.842000
9.641064	0.848165	0.640205	239.342000
9.665021	0.872897	0.641648	239.842000
9.687920	0.896205	0.643214	240.342000
9.709667	0.918173	0.644857	240.842000
9.731967	0.938858	0.646385	241.342000
9.756631	0.958231	0.648000	241.842000
9.780283	0.976116	0.649562	242.342000
9.802630	0.992514	0.651178	242.842000
9.824425	1.007197	0.652756	243.342000
9.848123	1.020216	0.654345	243.842000
9.871887	1.031754	0.655984	244.342000
9.895561	1.041516	0.657731	244.842000
9.917312	1.050332	0.659394	245.342000
9.938962	1.058343	0.661124	245.842000
9.961386	1.065214	0.662837	246.342000
9.983353	1.071199	0.664492	246.842000
10.005596	1.075441	0.665912	247.342000
10.026404	1.077737	0.667361	247.842000
10.048359	1.078931	0.668997	248.342000
10.070587	1.078972	0.670822	248.842000
10.093362	1.078043	0.672789	249.342000
10.115326	1.076108	0.674883	249.842000
10.138777	1.073097	0.676859	250.343000
10.161066	1.069269	0.678879	250.842000
10.181281	1.064499	0.680880	251.342000
10.201639	1.058573	0.682791	251.842000
10.223596	1.051443	0.684664	252.342000
10.246187	1.043254	0.686556	252.842000
10.270641	1.034205	0.688354	253.342000
10.293052	1.024353	0.690068	253.842000
10.316038	1.013017	0.691875	254.342000
10.339688	1.000360	0.693869	254.842000
10.363815	0.987025	0.695921	255.342000
10.386301	0.972888	0.698062	255.842000
10.405637	0.957579	0.700300	256.342000
10.428720	0.941473	0.702438	256.842000
10.452704	0.924813	0.704587	257.342000
10.473102	0.907453	0.706691	257.842000
10.498337	0.889590	0.708755	258.342000
10.518642	0.871245	0.710732	258.842000
10.540518	0.852590	0.712877	259.342000
10.564404	0.833758	0.715185	259.842000
10.587451	0.814828	0.717408	260.342000
10.609412	0.795840	0.719588	260.842000
10.631934	0.776439	0.721702	261.343000
10.653980	0.756322	0.723947	261.842000
10.677142	0.736121	0.726154	262.342000
10.698658	0.715538	0.728433	262.842000
10.720856	0.694574	0.730898	263.342000
10.747767	0.672874	0.733289	263.842000
10.769378	0.650883	0.735677	264.342000
10.791840	0.628642	0.738109	264.842000
10.812161	0.605879	0.740482	265.342000
10.831586	0.582916	0.742982	265.842000
10.853259	0.559703	0.745367	266.342000
10.880411	0.536435	0.747708	266.842000
10.899920	0.513267	0.750284	267.342000
10.924467	0.490331	0.752930	267.842000
10.947994	0.467643	0.755328	268.342000
10.968531	0.444671	0.757559	268.842000
10.989782	0.421799	0.759679	269.342000
11.010984	0.398826	0.761767	269.842000
11.033365	0.376529	0.763640	270.342000
11.063275	0.354663	0.765334	270.842000
11.088647	0.332879	0.766693	271.342000
11.101227	0.310704	0.767866	271.842000
11.118784	0.288242	0.768971	272.342000
11.138837	0.266782	0.769929	272.842000
11.165694	0.247062	0.770666	273.343000
11.187598	0.229148	0.771285	273.842000
11.207640	0.212945	0.772002	274.342000
11.230341	0.198913	0.772527	274.842000
11.250430	0.187417	0.772816	275.342000
11.272773	0.178822	0.772889	275.843000
11.295271	0.173317	0.772926	276.342000
11.316486	0.171263	0.773113	276.842000
11.338695	0.172471	0.773157	277.342000
11.360825	0.176690	0.773357	277.842000
11.383715	0.183562	0.773524	278.342000
11.401801	0.192904	0.773524	278.842000
11.424781	0.204382	0.773543	279.342000
11.445766	0.218063	0.773263	279.842000
11.468515	0.234242	0.773102	280.342000
11.489731	0.252837	0.773110	280.842000
11.512567	0.273754	0.773186	281.342000
11.535968	0.297420	0.773230	281.842000
11.557590	0.323386	0.773302	282.342000
11.579530	0.351578	0.773435	282.842000
11.602100	0.382137	0.773537	283.342000
11.624700	0.414515	0.773878	283.842000
11.646513	0.448708	0.774214	284.342000
11.667749	0.484513	0.774445	284.842000
11.688919	0.521418	0.774962	285.342000
11.713721	0.559117	0.775594	285.842000
11.735852	0.597292	0.776308	286.342000
11.757770	0.635794	0.777243	286.842000
11.779840	0.674073	0.778344	287.342000
11.802407	0.711873	0.779313	287.842000
11.824558	0.748863	0.780343	288.342000
11.849783	0.785098	0.781381	288.842000
11.868951	0.820709	0.782315	289.342000
11.891840	0.855728	0.783495	289.842000
11.914069	0.889965	0.784695	290.342000
11.936481	0.923283	0.785920	290.842000
11.960461	0.955508	0.787116	291.342000
11.981705	0.986518	0.788346	291.842000
12.003801	1.016666	0.789575	292.342000
12.025044	1.046189	0.791089	292.842000
12.047517	1.074888	0.792464	293.342000
12.069635	1.102304	0.793764	293.842000
12.092494	1.128931	0.795149	294.342000
12.115695	1.154564	0.796533	294.843000
12.136254	1.178831	0.797829	295.342000
12.158490	1.201948	0.799237	295.842000
12.180618	1.224012	0.800739	296.342000
12.204932	1.245120	0.802323	296.842000
12.227700	1.265263	0.803939	297.342000
12.247939	1.284856	0.805461	297.842000
12.268818	1.303186	0.806930	298.342000
12.290399	1.320180	0.808433	298.843000
12.315109	1.336978	0.810000	299.342000
12.339185	1.352764	0.811873	299.842000
12.359802	1.367656	0.813574	300.343000
12.382348	1.382092	0.815114	300.842000
12.404184	1.395672	0.816583	301.342000
12.426706	1.408457	0.818177	301.842000
12.451272	1.420977	0.819827	302.342000
12.474068	1.433130	0.821494	302.842000
12.497177	1.444419	0.823219	303.342000
12.519408	1.454770	0.824884	303.842000
12.541185	1.464636	0.826470	304.342000
12.562988	1.474223	0.828054	304.842000
12.584628	1.483178	0.829703	305.342000
12.606381	1.491422	0.831372	305.842000
12.628883	1.499235	0.833012	306.342000
12.650500	1.506641	0.834591	306.842000
12.672371	1.513512	0.836238	307.342000
12.696462	1.519679	0.837897	307.842000
12.718746	1.525354	0.839546	308.342000
12.740985	1.530244	0.841158	308.843000
12.760812	1.534606	0.842799	309.342000
12.782681	1.538478	0.844467	309.842000
12.805338	1.542162	0.846038	310.342000
12.829800	1.545109	0.847655	310.842000
12.853537	1.547559	0.849171	311.342000
12.875629	1.549693	0.850745	311.842000
12.898027	1.551674	0.852351	312.342000
12.920003	1.553272	0.854147	312.842000
12.942980	1.554608	0.855775	313.342000
12.966375	1.555429	0.857338	313.842000
12.988038	1.555514	0.858941	314.342000
13.010350	1.555291	0.860580	314.843000
13.031712	1.554561	0.862241	315.342000
13.052817	1.553383	0.863848	315.842000
13.077069	1.552098	0.865413	316.342000
13.100129	1.550857	0.867157	316.842000
13.122430	1.549395	0.868879	317.342000
13.143454	1.547440	0.870588	317.842000
13.164580	1.544929	0.872287	318.342000
13.186247	1.542064	0.873889	318.842000
13.207257	1.538909	0.875431	319.342000
13.229379	1.535560	0.877140	319.842000
13.251047	1.531591	0.878911	320.342000
13.273236	1.527107	0.880680	320.842000
13.295132	1.522095	0.882377	321.342000
13.316554	1.516721	0.884047	321.842000
13.339118	1.510949	0.885732	322.342000
13.362868	1.504845	0.887409	322.842000
13.384391	1.498328	0.889265	323.342000
13.406042	1.491467	0.891148	323.842000
13.427254	1.484308	0.893049	324.343000
13.448736	1.476672	0.895013	324.842000
13.469962	1.468148	0.896877	325.342000
13.493405	1.458899	0.898913	325.842000
13.516632	1.449399	0.900734	326.342000
13.537695	1.438934	0.902439	326.842000
13.559397	1.428061	0.904327	327.342000
13.581579	1.416886	0.906159	327.843000
13.604338	1.405053	0.908171	328.342000
13.626533	1.392844	0.910186	328.843000
13.649816	1.380443	0.912362	329.342000
13.672003	1.367185	0.914597	329.842000
13.693445	1.353051	0.916944	330.342000
13.714713	1.338486	0.919255	330.842000
13.735434	1.323421	0.921463	331.342000
13.757999	1.307842	0.923456	331.842000
13.781497	1.291964	0.925532	332.342000
13.804006	1.275503	0.927767	332.842000
13.825776	1.258387	0.929921	333.342000
13.847767	1.240859	0.932083	333.842000
13.871410	1.223170	0.934241	334.343000
13.895870	1.204973	0.936439	334.842000
13.918408	1.186362	0.938753	335.342000
13.939990	1.167045	0.941073	335.842000
13.962107	1.147515	0.943247	336.342000
13.983554	1.128082	0.945517	336.842000
14.007379	1.108820	0.948030	337.342000
14.031922	1.089816	0.950658	337.843000
14.054696	1.070325	0.953261	338.342000
14.077125	1.050453	0.955863	338.842000
14.098959	1.030356	0.958579	339.342000
14.123240	1.009621	0.960997	339.842000
14.146320	0.988535	0.963396	340.342000
14.170023	0.967056	0.965865	340.842000
14.191604	0.944491	0.968421	341.342000
14.214242	0.921406	0.970952	341.842000
14.239048	0.897970	0.973605	342.342000
14.262584	0.874457	0.976156	342.842000
14.284266	0.850534	0.978798	343.342000
14.306738	0.826154	0.981349	343.842000
14.331079	0.801325	0.983786	344.342000
14.356921	0.775805	0.986289	344.842000
14.379059	0.750136	0.988892	345.342000
14.400388	0.723842	0.991413	345.842000
14.421349	0.696870	0.993871	346.342000
14.442708	0.669698	0.996452	346.842000
14.465812	0.642034	0.998888	347.342000
14.489405	0.614363	1.000993	347.842000
14.512191	0.587094	1.003225	348.342000
14.534770	0.560121	1.005532	348.842000
14.557105	0.533319	1.007723	349.342000
14.579873	0.506662	1.009847	349.842000
14.601154	0.480286	1.011824	350.343000
14.623249	0.454761	1.013627	350.842000
14.645605	0.429548	1.015310	351.342000
14.668260	0.404225	1.016856	351.842000
14.690354	0.378972	1.018159	352.342000
14.712206	0.354108	1.019343	352.842000
14.733396	0.329667	1.020409	353.342000
14.757646	0.306156	1.021397	353.842000
14.777967	0.283425	1.022199	354.343000
14.798740	0.261463	1.022803	354.842000
14.819382	0.241176	1.023164	355.342000
14.841619	0.222518	1.023448	355.842000
14.861813	0.205929	1.023643	356.342000
14.884895	0.191647	1.023714	356.843000
14.905851	0.179693	1.023905	357.342000
14.927868	0.169812	1.024228	357.843000
14.948270	0.162392	1.024204	358.342000
14.970983	0.157275	1.024183	358.842000
14.991561	0.154452	1.024289	359.342000
15.012855	0.153730	1.024434	359.842000
15.034625	0.154669	1.024534	360.342000
15.057101	0.156785	1.024619	360.842000
15.077891	0.160718	1.024586	361.342000
15.099673	0.166269	1.024704	361.842000
15.121683	0.172759	1.024801	362.342000
15.142584	0.180773	1.024629	362.842000
15.163963	0.189941	1.024485	363.343000
15.186402	0.200803	1.024432	363.842000
15.208399	0.213064	1.024276	364.342000
15.232531	0.225968	1.024159	364.842000
15.253442	0.239805	1.023896	365.342000
15.273618	0.255052	1.023623	365.842000
15.294546	0.271699	1.023461	366.342000
15.315358	0.289783	1.023299	366.843000
15.336812	0.309045	1.023202	367.342000
15.356826	0.329714	1.023023	367.842000
15.379838	0.351745	1.022854	368.342000
15.404171	0.375373	1.022753	368.842000
15.426550	0.400576	1.022760	369.342000
15.447192	0.427293	1.022726	369.843000
15.467325	0.456085	1.022665	370.342000
15.488979	0.486257	1.022710	370.842000
15.511844	0.518181	1.022707	371.342000
15.534141	0.551680	1.022754	371.842000
15.556477	0.586438	1.022983	372.342000
15.579318	0.622320	1.023292	372.842000
15.601692	0.659171	1.023431	373.342000
15.625963	0.697482	1.023469	373.842000
15.648912	0.736219	1.023878	374.343000
15.671753	0.775216	1.024619	374.842000
15.691501	0.814722	1.025488	375.342000
15.713663	0.854549	1.026438	375.842000
15.736220	0.893878	1.027399	376.342000
15.757604	0.932850	1.028497	376.843000
15.778878	0.971465	1.029414	377.342000
15.803838	1.009199	1.030209	377.843000
15.825589	1.046424	1.031119	378.342000
15.848984	1.083068	1.032042	378.842000
15.871110	1.119424	1.032918	379.342000
15.891259	1.155408	1.033946	379.842000
15.914789	1.190343	1.035248	380.342000
15.934320	1.224789	1.036589	380.843000
15.956753	1.257803	1.037915	381.342000
15.979548	1.288972	1.039168	381.842000
16.003863	1.319228	1.040289	382.342000
16.023322	1.349058	1.041578	382.842000
16.043444	1.378191	1.043043	383.342000
16.063502	1.406255	1.044474	383.842000
16.083831	1.433559	1.045989	384.342000
16.108601	1.460267	1.047293	384.842000
16.128375	1.486328	1.048452	385.342000
16.150497	1.511906	1.049660	385.842000
16.170265	1.536521	1.051033	386.343000
16.188726	1.559940	1.052597	386.842000
16.209629	1.582356	1.054113	387.342000
16.232206	1.603768	1.055574	387.843000
16.253573	1.624176	1.056940	388.342000
16.272544	1.644012	1.058474	388.843000
16.292839	1.663110	1.059998	389.342000
16.314947	1.681639	1.061543	389.842000
16.338412	1.699767	1.063120	390.342000
16.357934	1.717348	1.064657	390.842000
16.379557	1.734014	1.066229	391.343000
16.402396	1.750299	1.067974	391.842000
16.423436	1.766211	1.069600	392.342000
16.444100	1.782054	1.071065	392.842000
16.467096	1.797314	1.072582	393.342000
16.487583	1.812384	1.074219	393.842000
16.508166	1.826746	1.075849	394.343000
16.528599	1.840181	1.077507	394.842000
16.547182	1.853193	1.079092	395.343000
16.569573	1.865829	1.080567	395.842000
16.591766	1.877594	1.082122	396.342000
16.611266	1.889257	1.083717	396.842000
16.632860	1.900299	1.085459	397.342000
16.654268	1.910620	1.087088	397.842000
16.670964	1.920825	1.088733	398.342000
16.692223	1.930571	1.090393	398.842000
16.711888	1.939736	1.092073	399.342000
16.732316	1.948363	1.093616	399.842000
16.753261	1.956667	1.095094	400.342000
16.775656	1.964890	1.096728	400.842000
16.796193	1.972699	1.098367	401.342000
16.818938	1.979767	1.099881	401.842000
16.839366	1.986479	1.101665	402.343000
16.860337	1.993231	1.103472	402.842000
16.880390	1.999792	1.105174	403.342000
16.902173	2.006171	1.106652	403.842000
16.923686	2.011998	1.108049	404.342000
16.943060	2.017241	1.109514	404.842000
16.963900	2.022680	1.111043	405.343000
16.985138	2.028110	1.112593	405.842000
17.006805	2.032831	1.114143	406.342000
17.027852	2.037177	1.115890	406.842000
17.048092	2.040659	1.117667	407.342000
17.069002	2.043882	1.119367	407.842000
17.091584	2.047250	1.121051	408.342000
17.113865	2.050573	1.122710	408.842000
17.134230	2.053364	1.124407	409.342000
17.157150	2.056095	1.126091	409.842000
17.179322	2.058540	1.127668	410.342000
17.199920	2.061076	1.129167	410.842000
17.219212	2.063063	1.130882	411.342000
17.240314	2.065298	1.132453	411.842000
17.262061	2.066647	1.133969	412.342000
17.283447	2.067084	1.135668	412.842000
17.303595	2.067783	1.137245	413.342000
17.323349	2.068670	1.138764	413.842000
17.344643	2.069284	1.140401	414.342000
17.365217	2.070081	1.141985	414.842000
17.387544	2.070882	1.143545	415.342000
17.408800	2.071487	1.145060	415.842000
17.429730	2.072340	1.146566	416.342000
17.450277	2.073280	1.148012	416.842000
17.470482	2.073879	1.149312	417.342000
17.490870	2.074404	1.150640	417.842000
17.511216	2.074716	1.152334	418.342000
17.532775	2.074527	1.153946	418.842000
17.554319	2.074491	1.155604	419.342000
17.577043	2.074346	1.157122	419.842000
17.598311	2.074158	1.158424	420.342000
17.619235	2.074265	1.159966	420.843000
17.640056	2.074351	1.161517	421.342000
17.661333	2.073506	1.162970	421.843000
17.682486	2.072429	1.164435	422.342000
17.703330	2.071701	1.165746	422.842000
17.724969	2.070510	1.166894	423.342000
17.747225	2.069238	1.168140	423.842000
17.768367	2.068462	1.169585	424.342000
17.789998	2.067737	1.171071	424.842000
17.810449	2.066879	1.172561	425.342000
17.832124	2.065914	1.174149	425.842000
17.852759	2.065510	1.175765	426.342000
17.873807	2.065181	1.177074	426.842000
17.894860	2.064617	1.178359	427.342000
17.916879	2.064052	1.179804	427.843000
17.939979	2.063906	1.181254	428.342000
17.960400	2.063657	1.182680	428.842000
17.980868	2.063100	1.183924	429.342000
18.001466	2.062955	1.185045	429.842000
18.022102	2.063219	1.186149	430.342000
18.043305	2.063096	1.187168	430.843000
18.064663	2.062994	1.188178	431.342000
18.086115	2.063391	1.189347	431.842000
18.107910	2.064001	1.190430	432.342000
18.128775	2.064403	1.191826	432.842000
18.150488	2.064639	1.193017	433.342000
18.173074	2.064882	1.194207	433.842000
18.193868	2.065097	1.195693	434.343000
18.213806	2.065791	1.197186	434.842000
18.234091	2.066618	1.198531	435.342000
18.255689	2.067638	1.199779	435.842000
18.276758	2.069091	1.201172	436.342000
18.298529	2.071371	1.202352	436.842000
18.320709	2.073325	1.203432	437.342000
18.342325	2.075356	1.204702	437.842000
18.362953	2.077127	1.205916	438.342000
18.383408	2.078747	1.207213	438.842000
18.405173	2.080570	1.208472	439.342000
18.425410	2.082446	1.209502	439.842000
18.445753	2.084329	1.210464	440.342000
18.468671	2.086721	1.211648	440.842000
18.490500	2.089722	1.212832	441.342000
18.511862	2.092526	1.214006	441.842000
18.532472	2.095334	1.215485	442.342000
18.553299	2.098840	1.216927	442.842000
18.574867	2.102305	1.218223	443.342000
18.595775	2.105509	1.219471	443.842000
18.616985	2.108701	1.220591	444.342000
18.639730	2.111934	1.221716	444.842000
18.660645	2.115161	1.222989	445.342000
18.681656	2.118905	1.224353	445.842000
18.703192	2.122754	1.225709	446.342000
18.723883	2.126139	1.227129	446.842000
18.744440	2.129148	1.228590	447.342000
18.766060	2.131890	1.230040	447.842000
18.786058	2.134690	1.231417	448.342000
18.807331	2.138129	1.232628	448.842000
18.828982	2.141854	1.233878	449.342000
18.850693	2.145419	1.235279	449.842000
18.871438	2.147925	1.236706	450.342000
18.890973	2.150469	1.237968	450.842000
18.912363	2.153408	1.239413	451.342000
18.934216	2.156675	1.240851	451.842000
18.956757	2.160085	1.242251	452.342000
18.977914	2.164050	1.243617	452.842000
18.998238	2.167662	1.245095	453.342000
19.019554	2.171139	1.246661	453.842000
19.041042	2.174379	1.248145	454.342000
19.062950	2.177882	1.249625	454.842000
19.085400	2.180522	1.251145	455.342000
19.107315	2.182659	1.252567	455.842000
19.129956	2.184579	1.254089	456.343000
19.151875	2.186336	1.255643	456.842000
19.172748	2.188450	1.257209	457.342000
19.192907	2.190739	1.258840	457.842000
19.213647	2.192496	1.260635	458.342000
19.235361	2.194004	1.262406	458.842000
19.256830	2.195564	1.264078	459.342000
19.278686	2.197016	1.265776	459.842000
19.299396	2.198050	1.267585	460.342000
19.320587	2.199557	1.269248	460.842000
19.342941	2.200898	1.270799	461.342000
19.364310	2.201877	1.272412	461.842000
19.384277	2.201926	1.274025	462.342000
19.405501	2.201473	1.275769	462.843000
19.426436	2.200663	1.277570	463.342000
19.448755	2.199420	1.279435	463.842000
19.470020	2.197657	1.281374	464.342000
19.489781	2.195410	1.283200	464.842000
19.511029	2.193235	1.284998	465.342000
19.532791	2.191040	1.286753	465.842000
19.555029	2.188188	1.288649	466.342000
19.576016	2.185097	1.290510	466.842000
19.597809	2.182205	1.292175	467.342000
19.620374	2.179019	1.293957	467.842000
19.642973	2.175262	1.295739	468.342000
19.664271	2.171972	1.297500	468.842000
19.685100	2.168663	1.299435	469.342000
19.706720	2.164770	1.301367	469.842000
19.728748	2.160317	1.303223	470.342000
19.750253	2.155435	1.305197	470.842000
19.772360	2.150732	1.307350	471.342000
19.794119	2.145986	1.309630	471.842000
19.816536	2.141249	1.311692	472.342000
19.837938	2.136376	1.313586	472.843000
19.859199	2.131374	1.315583	473.342000
19.880516	2.125599	1.317549	473.842000
19.901869	2.119520	1.319642	474.342000
19.924090	2.112748	1.321723	474.842000
19.944882	2.105269	1.323545	475.342000
19.965945	2.098230	1.325479	475.842000
19.986970	2.091213	1.327610	476.343000
20.008122	2.083156	1.329735	476.842000
20.029743	2.074479	1.331891	477.343000
20.050425	2.065605	1.334095	477.842000
20.069640	2.056775	1.336281	478.342000
20.090289	2.047990	1.338708	478.842000
20.113225	2.039145	1.340881	479.342000
20.134430	2.030045	1.342953	479.842000
20.154221	2.020641	1.344981	480.342000
20.174091	2.010764	1.346895	480.842000
20.194653	2.000176	1.348777	481.342000
20.218054	1.989321	1.351056	481.842000
20.238186	1.978509	1.353413	482.342000
20.257111	1.967573	1.355713	482.842000
20.278882	1.956207	1.357970	483.342000
20.299193	1.945028	1.360142	483.842000
20.320704	1.934006	1.362223	484.342000
20.341133	1.922702	1.364303	484.842000
20.361288	1.911099	1.366368	485.342000
20.381671	1.898448	1.368584	485.842000
20.403572	1.885165	1.370808	486.343000
20.426085	1.871957	1.373117	486.842000
20.447424	1.858663	1.375368	487.342000
20.467132	1.845491	1.377585	487.842000
20.488188	1.832067	1.379850	488.342000
20.511315	1.818437	1.382201	488.842000
20.533225	1.804321	1.384418	489.342000
20.553421	1.789699	1.386824	489.842000
20.574689	1.774975	1.389336	490.342000
20.595896	1.760166	1.391775	490.843000
20.617003	1.745399	1.394317	491.342000
20.637150	1.730429	1.396979	491.843000
20.658037	1.715485	1.399703	492.342000
20.679578	1.700111	1.402187	492.843000
20.699639	1.684743	1.404418	493.342000
20.722252	1.669032	1.406585	493.843000
20.742877	1.652834	1.408743	494.342000
20.764502	1.636792	1.410954	494.842000
20.784842	1.620967	1.413190	495.342000
20.805832	1.604680	1.415667	495.842000
20.827368	1.587770	1.418135	496.342000
20.847935	1.570830	1.420517	496.842000
20.870453	1.553706	1.422914	497.342000
20.886554	1.536336	1.425322	497.842000
20.911129	1.518907	1.427806	498.342000
20.932952	1.501639	1.430427	498.842000
20.951225	1.484317	1.432934	499.342000
20.970697	1.466184	1.435458	499.842000
20.993423	1.447509	1.437979	500.343000
21.015068	1.428701	1.440499	500.842000
21.039410	1.409456	1.443045	501.342000
21.061448	1.389158	1.445755	501.843000
21.083184	1.368143	1.448364	502.342000
21.104177	1.346151	1.451044	502.842000
21.125499	1.323580	1.453649	503.342000
21.147944	1.300677	1.456231	503.842000
21.170775	1.277311	1.458698	504.343000
21.193372	1.253473	1.460994	504.842000
21.218403	1.228936	1.463343	505.343000
21.237339	1.203669	1.465669	505.842000
21.259418	1.178080	1.468093	506.342000
21.279269	1.151876	1.470664	506.842000
21.301898	1.125007	1.473260	507.342000
21.322974	1.097598	1.475827	507.842000
21.345390	1.069705	1.478364	508.342000
21.368692	1.041454	1.480939	508.842000
21.392566	1.013118	1.483479	509.342000
21.409747	0.984232	1.485944	509.842000
21.426871	0.954867	1.488244	510.342000
21.446405	0.924837	1.490551	510.842000
21.469589	0.895005	1.492944	511.342000
21.489923	0.865034	1.495140	511.842000
21.510790	0.835264	1.497055	512.342000
21.532758	0.805613	1.498919	512.842000
21.553460	0.776271	1.500786	513.342000
21.575620	0.747374	1.502726	513.842000
21.598004	0.718362	1.504712	514.342000
21.618851	0.688897	1.506459	514.842000
21.640710	0.659492	1.508117	515.342000
21.664532	0.630465	1.509654	515.842000
21.684943	0.601991	1.511141	516.342000
21.706958	0.573818	1.512605	516.842000
21.728357	0.545727	1.514158	517.343000
21.749110	0.517819	1.515393	517.842000
21.771456	0.490770	1.516623	518.343000
21.793868	0.464569	1.517761	518.842000
21.813733	0.438867	1.518654	519.342000
21.835046	0.413518	1.519561	519.842000
21.857202	0.389215	1.520415	520.342000
21.881558	0.365747	1.521075	520.842000
21.903998	0.343088	1.521674	521.342000
21.925598	0.321624	1.522347	521.842000
21.946974	0.300672	1.523015	522.342000
21.970062	0.280815	1.523598	522.842000
21.995354	0.262317	1.523988	523.342000
22.014177	0.245002	1.524268	523.842000
22.035050	0.229328	1.524402	524.343000
22.057586	0.215020	1.524374	524.842000
22.078775	0.202448	1.524438	525.342000
22.100561	0.191716	1.524652	525.842000
22.122918	0.182680	1.524860	526.342000
22.144978	0.174727	1.524948	526.842000
22.168054	0.168000	1.525064	527.342000
22.191283	0.163208	1.525140	527.842000
22.212867	0.159448	1.525162	528.342000
22.233881	0.156307	1.525105	528.842000
22.256190	0.154485	1.525145	529.342000
22.279617	0.153838	1.524995	529.842000
22.303049	0.153903	1.524938	530.342000
22.324936	0.155105	1.524968	530.842000
22.346351	0.156917	1.524952	531.342000
22.369187	0.159213	1.524947	531.842000
22.391315	0.161894	1.524947	532.342000
22.411643	0.165332	1.524886	532.842000
22.432656	0.169345	1.524776	533.342000
22.455816	0.173234	1.524711	533.842000
22.478331	0.177511	1.524618	534.342000
22.499249	0.182132	1.524731	534.842000
22.521136	0.185874	1.524756	535.342000
22.543570	0.190323	1.524767	535.842000
22.565667	0.196197	1.524870	536.342000
22.586860	0.202860	1.524928	536.842000
22.607784	0.210009	1.525037	537.343000
22.632479	0.217460	1.525084	537.842000
22.653521	0.224653	1.525012	538.342000
22.675377	0.231900	1.524862	538.842000
22.695369	0.239483	1.524767	539.342000
22.716763	0.247289	1.524780	539.842000
22.738379	0.255653	1.524881	540.342000
22.761212	0.264593	1.524978	540.842000
22.784769	0.273853	1.525133	541.342000
22.806271	0.283211	1.525081	541.842000
22.828648	0.293209	1.525100	542.342000
22.850297	0.303934	1.524928	542.843000
22.870869	0.315411	1.524724	543.342000
22.892706	0.327839	1.524676	543.842000
22.913949	0.340369	1.524455	544.342000
22.936521	0.353542	1.524324	544.842000
22.958170	0.367449	1.524265	545.342000
22.978528	0.382065	1.524184	545.842000
22.999338	0.396993	1.524081	546.342000
23.020918	0.412779	1.524055	546.842000
23.042165	0.429641	1.524026	547.343000
23.062498	0.447718	1.523785	547.842000
23.084408	0.466584	1.523512	548.342000
23.107659	0.485551	1.523432	548.842000
23.130140	0.505606	1.523264	549.342000
23.150934	0.527032	1.523092	549.842000
23.172631	0.549183	1.522899	550.342000
23.193253	0.571794	1.522706	550.842000
23.214254	0.595594	1.522673	551.342000
23.236169	0.620545	1.522615	551.842000
23.258665	0.646000	1.522392	552.342000
23.279671	0.672620	1.522024	552.842000
23.300526	0.700336	1.521744	553.342000
23.320891	0.729316	1.521418	553.842000
23.342810	0.759278	1.521265	554.342000
23.363804	0.790365	1.521200	554.842000
23.385382	0.822643	1.520997	555.342000
23.405727	0.855926	1.520633	555.842000
23.427375	0.889849	1.520314	556.342000
23.449188	0.924589	1.520095	556.842000
23.470722	0.961020	1.519945	557.343000
23.492481	0.997530	1.519967	557.842000
23.513666	1.034372	1.520047	558.343000
23.535542	1.071754	1.520197	558.842000
23.557313	1.109607	1.520416	559.342000
23.578092	1.147360	1.520534	559.842000
23.599377	1.185803	1.520674	560.343000
23.620758	1.225762	1.520753	560.842000
23.642490	1.266255	1.521035	561.342000
23.665303	1.307582	1.521284	561.842000
23.685813	1.349554	1.521738	562.342000
23.708124	1.391698	1.522314	562.843000
23.730432	1.433229	1.522885	563.342000
23.751804	1.474657	1.523446	563.842000
23.773747	1.516440	1.524093	564.342000
23.793755	1.558057	1.524873	564.843000
23.815050	1.599060	1.525799	565.343000
23.837528	1.640020	1.526607	565.842000
23.860222	1.680705	1.527244	566.342000
23.881627	1.721282	1.527763	566.842000
23.902754	1.761343	1.528440	567.342000
23.923812	1.801048	1.529434	567.842000
23.944811	1.840446	1.530404	568.342000
23.966561	1.879178	1.531409	568.842000
23.987541	1.917263	1.532398	569.342000
24.010851	1.954396	1.533439	569.842000
24.033797	1.991291	1.534498	570.342000
24.055556	2.027611	1.535538	570.842000
24.076936	2.063220	1.536783	571.342000
24.098521	2.098222	1.538119	571.842000
24.121347	2.132201	1.539612	572.342000
24.142648	2.165159	1.540924	572.843000
24.164912	2.197782	1.542306	573.342000
24.186603	2.230310	1.543749	573.843000
24.208283	2.262835	1.545214	574.343000
24.230631	2.294165	1.546710	574.843000
24.251340	2.324404	1.548033	575.342000
24.272109	2.353838	1.549456	575.842000
24.293550	2.382713	1.550965	576.342000
24.315633	2.411488	1.552513	576.842000
24.336525	2.439836	1.553855	577.342000
24.359703	2.466355	1.555180	577.842000
24.381114	2.491896	1.556815	578.342000
24.402806	2.516451	1.558453	578.842000
24.425670	2.541123	1.559963	579.342000
24.444953	2.565771	1.561521	579.842000
24.464442	2.590280	1.563033	580.342000
24.488049	2.614024	1.564605	580.842000
24.512740	2.636500	1.566139	581.343000
24.534252	2.658623	1.567546	581.843000
24.554646	2.680474	1.569144	582.342000
24.576438	2.701497	1.570741	582.843000
24.598271	2.721861	1.572385	583.342000
24.620428	2.741839	1.573889	583.842000
24.643620	2.761477	1.575500	584.342000
24.665078	2.780983	1.577187	584.842000
24.687966	2.799804	1.578688	585.342000
24.710318	2.817260	1.580303	585.842000
24.733140	2.834466	1.582095	586.342000
24.753959	2.851562	1.583806	586.842000
24.773655	2.868607	1.585533	587.342000
24.795370	2.885383	1.587398	587.842000
24.818825	2.902113	1.589152	588.342000
24.840489	2.918776	1.590868	588.842000
24.861529	2.935459	1.592438	589.342000
24.882804	2.951146	1.593979	589.842000
24.904344	2.966224	1.595571	590.342000
24.925951	2.980698	1.597223	590.842000
24.947206	2.994746	1.598946	591.342000
24.970065	3.008444	1.600536	591.842000
24.992903	3.021274	1.602173	592.342000
25.014614	3.033746	1.603851	592.843000
25.035521	3.046382	1.605422	593.342000
25.056436	3.058980	1.607004	593.842000
25.077208	3.071554	1.608743	594.342000
25.099260	3.083382	1.610466	594.842000
25.120971	3.094603	1.612035	595.342000
25.141948	3.105547	1.613689	595.842000
25.164491	3.116332	1.615333	596.343000
25.185566	3.127025	1.616951	596.842000
25.207386	3.137642	1.618833	597.342000
25.229429	3.148266	1.620737	597.842000
25.249154	3.158515	1.622478	598.342000
25.272120	3.168377	1.623944	598.842000
25.293493	3.177930	1.625473	599.342000
25.314722	3.187312	1.627119	599.842000
25.336559	3.196291	1.628786	600.342000
25.359243	3.205412	1.630501	600.842000
25.381964	3.214857	1.632170	601.342000
25.402872	3.223991	1.633885	601.842000
25.425148	3.232911	1.635461	602.342000
25.443736	3.241587	1.637092	602.843000
25.465166	3.249435	1.638887	603.342000
25.486999	3.256834	1.640898	603.843000
25.509009	3.264204	1.642641	604.342000
25.530216	3.271645	1.644226	604.842000
25.551268	3.278956	1.645747	605.342000
25.571706	3.285874	1.647387	605.842000
25.593666	3.293067	1.649034	606.342000
25.616302	3.300451	1.650765	606.842000
25.636215	3.307599	1.652388	607.342000
25.657287	3.314284	1.654057	607.842000
25.678329	3.321011	1.655733	608.343000
25.701261	3.327111	1.657478	608.842000
25.722794	3.333247	1.659060	609.342000
25.743731	3.339125	1.660877	609.842000
25.765882	3.344635	1.662702	610.343000
25.788657	3.349782	1.664465	610.842000
25.810444	3.355166	1.666000	611.342000
25.833438	3.360639	1.667685	611.842000
25.853303	3.366442	1.669418	612.342000
25.874898	3.371714	1.671179	612.842000
25.898302	3.376180	1.672949	613.342000
25.918823	3.380506	1.674838	613.842000
25.939804	3.384751	1.676571	614.342000
25.962697	3.388886	1.678213	614.842000
25.985779	3.392518	1.679911	615.342000
26.007547	3.396186	1.681492	615.842000
26.028137	3.399496	1.683171	616.342000
26.048867	3.402453	1.684914	616.843000
26.067178	3.405666	1.686609	617.342000
26.089328	3.409154	1.688337	617.842000
26.111482	3.412538	1.689998	618.342000
26.133058	3.415653	1.691549	618.842000
26.154433	3.418777	1.693286	619.342000
26.174905	3.422335	1.695035	619.842000
26.196228	3.425567	1.696807	620.342000
26.214496	3.428101	1.698412	620.842000
26.233792	3.430038	1.700247	621.342000
26.252078	3.431585	1.702063	621.844000
26.274831	3.433040	1.703659	622.343000
26.298074	3.434656	1.705314	622.842000
26.320209	3.436267	1.707013	623.342000
26.345564	3.437979	1.708965	623.843000
26.364601	3.439290	1.710571	624.342000
26.387522	3.440318	1.712192	624.842000
26.416407	3.441167	1.713858	625.342000
26.435367	3.441884	1.715638	625.842000
26.451740	3.442721	1.717368	626.342000
26.472314	3.443242	1.719257	626.842000
26.490245	3.443629	1.721079	627.342000
26.510510	3.444006	1.722915	627.842000
26.536329	3.444427	1.724530	628.342000
26.552091	3.444632	1.726101	628.842000
26.576378	3.444509	1.727826	629.342000
26.598061	3.444144	1.729696	629.842000
26.620319	3.443429	1.731413	630.342000
26.640376	3.442623	1.733395	630.842000
26.663458	3.441916	1.735489	631.342000
26.685645	3.440765	1.737321	631.842000
26.704364	3.439407	1.739380	632.343000
26.726526	3.437920	1.741269	632.842000
26.749783	3.436180	1.742875	633.342000
26.768203	3.434603	1.744521	633.843000
26.789652	3.432905	1.746209	634.342000
26.807266	3.431021	1.747926	634.842000
26.829964	3.429425	1.749782	635.342000
26.852231	3.427537	1.751607	635.842000
26.870981	3.425555	1.753346	636.342000
26.892184	3.423297	1.755248	636.842000
26.915179	3.420679	1.757204	637.342000
26.935362	3.418299	1.759125	637.842000
26.953764	3.415673	1.760942	638.343000
26.974114	3.413041	1.762592	638.842000
26.996447	3.409999	1.764366	639.342000
27.017459	3.406407	1.766062	639.842000
27.039600	3.402597	1.767808	640.343000
27.061369	3.398792	1.769674	640.842000
27.083102	3.394697	1.771443	641.342000
27.103198	3.390350	1.772989	641.842000
27.125184	3.385819	1.774781	642.343000
27.147836	3.381720	1.776667	642.842000
27.169360	3.377766	1.778568	643.342000
27.194050	3.373916	1.780707	643.843000
27.215126	3.369558	1.782739	644.342000
27.236975	3.365083	1.784644	644.842000
27.260907	3.360404	1.786532	645.342000
27.281070	3.355176	1.788559	645.842000
27.301849	3.350085	1.790588	646.342000
27.323877	3.344711	1.792492	646.842000
27.349078	3.338972	1.794507	647.342000
27.371201	3.333022	1.796508	647.843000
27.393488	3.326888	1.798482	648.342000
27.415306	3.320938	1.800548	648.842000
27.438841	3.315192	1.802589	649.343000
27.462885	3.309132	1.804520	649.842000
27.484189	3.302379	1.806666	650.342000
27.505530	3.295673	1.808864	650.842000
27.527402	3.288636	1.810908	651.342000
27.549380	3.281027	1.812946	651.842000
27.571552	3.273137	1.815101	652.342000
27.594414	3.265393	1.817304	652.842000
27.615347	3.258024	1.819430	653.342000
27.635675	3.250484	1.821605	653.843000
27.657888	3.242722	1.823629	654.342000
27.679693	3.235038	1.825512	654.842000
27.700121	3.227225	1.827452	655.342000
27.721032	3.219176	1.829513	655.843000
27.741387	3.211187	1.831592	656.342000
27.763010	3.203069	1.833543	656.842000
27.784561	3.194596	1.835329	657.342000
27.807623	3.186152	1.837326	657.843000
27.830055	3.177767	1.839135	658.342000
27.851466	3.169550	1.840821	658.842000
27.872122	3.160919	1.842764	659.342000
27.893836	3.151982	1.844837	659.842000
27.915598	3.142747	1.847062	660.342000
27.938693	3.132917	1.849340	660.842000
27.960306	3.123152	1.851645	661.342000
27.982156	3.113433	1.853795	661.842000
28.003104	3.103566	1.855952	662.342000
28.024408	3.093284	1.857971	662.843000
28.045080	3.082780	1.859952	663.342000
28.065422	3.072887	1.861882	663.842000
28.087728	3.062881	1.863792	664.342000
28.107455	3.052472	1.865870	664.842000
28.129674	3.042485	1.867834	665.342000
28.150867	3.032233	1.869792	665.842000
28.170490	3.021689	1.871602	666.342000
28.191489	3.011136	1.873526	666.842000
28.211859	3.000234	1.875617	667.342000
28.234510	2.988728	1.877620	667.843000
28.255795	2.977297	1.879477	668.342000
28.276852	2.965922	1.881354	668.842000
28.297928	2.954549	1.883390	669.343000
28.318657	2.942769	1.885493	669.842000
28.339997	2.930752	1.887660	670.343000
28.361893	2.918620	1.889742	670.842000
28.384900	2.906214	1.891738	671.342000
28.408109	2.894012	1.893894	671.842000
28.429971	2.881613	1.896071	672.342000
28.450994	2.868943	1.898210	672.842000
28.471699	2.856242	1.900155	673.342000
28.491583	2.843125	1.902183	673.842000
28.514525	2.829528	1.904278	674.342000
28.535129	2.815749	1.906173	674.842000
28.555862	2.801721	1.908284	675.342000
28.578052	2.787623	1.910405	675.842000
28.599411	2.773881	1.912300	676.342000
28.621686	2.760186	1.914141	676.842000
28.643591	2.746357	1.916036	677.342000
28.665237	2.732423	1.917929	677.842000
28.686520	2.718120	1.919852	678.343000
28.708646	2.703356	1.921576	678.842000
28.731092	2.688480	1.923412	679.343000
28.754195	2.674121	1.925337	679.842000
28.775720	2.659333	1.927129	680.342000
28.798828	2.644525	1.928949	680.842000
28.820679	2.629841	1.930877	681.342000
28.842029	2.614637	1.932879	681.842000
28.862564	2.598284	1.934780	682.342000
28.885248	2.582206	1.936643	682.842000
28.907917	2.566590	1.938521	683.343000
28.930844	2.550827	1.940321	683.842000
28.951058	2.534848	1.942033	684.342000
28.972751	2.519150	1.943692	684.842000
28.995135	2.503450	1.945353	685.342000
29.017368	2.487739	1.946934	685.843000
29.039910	2.472139	1.948371	686.342000
29.060974	2.456387	1.950008	686.842000
29.082791	2.439929	1.951795	687.342000
29.106485	2.423850	1.953592	687.842000
29.129141	2.408319	1.955071	688.342000
29.149019	2.392527	1.956587	688.842000
29.170827	2.376959	1.958107	689.343000
29.193436	2.361655	1.959529	689.842000
29.216049	2.346492	1.960885	690.342000
29.238678	2.330995	1.962293	690.842000
29.259366	2.315053	1.963792	691.342000
29.281916	2.299102	1.965234	691.842000
29.303429	2.283009	1.966611	692.343000
29.324304	2.267264	1.967904	692.842000
29.345843	2.252211	1.969303	693.343000
29.367166	2.236690	1.970713	693.842000
29.388920	2.221269	1.971977	694.342000
29.412064	2.206364	1.973279	694.842000
29.434155	2.192242	1.974536	695.342000
29.455353	2.178167	1.975570	695.842000
29.477579	2.164095	1.976646	696.342000
29.499658	2.150276	1.977650	696.842000
29.521676	2.136928	1.978715	697.342000
29.542637	2.123498	1.979891	697.843000
29.564811	2.110015	1.980763	698.342000
29.588216	2.096704	1.981731	698.843000
29.611157	2.083581	1.982729	699.343000
29.632058	2.070785	1.983644	699.842000
29.652718	2.058337	1.984632	700.343000
29.674954	2.046033	1.985628	700.842000
29.696747	2.034308	1.986582	701.342000
29.717480	2.022986	1.987393	701.842000
29.738315	2.012561	1.988121	702.342000
29.760446	2.002237	1.988857	702.842000
29.782600	1.992282	1.989559	703.343000
29.805019	1.982662	1.990368	703.842000
29.825628	1.973562	1.991133	704.342000
29.846435	1.964549	1.991942	704.843000
29.868710	1.955399	1.992824	705.342000
29.891107	1.946776	1.993527	705.842000
29.913135	1.938614	1.994222	706.342000
29.935458	1.930877	1.994846	706.842000
29.957423	1.923053	1.995381	707.342000
29.980819	1.915335	1.995725	707.842000
30.001886	1.908439	1.996137	708.342000
30.022294	1.902400	1.996591	708.842000
30.043765	1.896780	1.996937	709.342000
30.065616	1.891583	1.997486	709.842000
30.086945	1.886799	1.998039	710.342000
30.109406	1.882094	1.998543	710.842000
30.130609	1.878051	1.999063	711.342000
30.150096	1.874262	1.999483	711.842000
30.172123	1.870616	1.999921	712.342000
30.194663	1.867126	2.000231	712.842000
30.216241	1.863740	2.000677	713.342000
30.237760	1.861383	2.001228	713.842000
30.259325	1.859842	2.001749	714.342000
30.283686	1.858406	2.002097	714.843000
30.306481	1.857300	2.002308	715.342000
30.328256	1.856689	2.002679	715.843000
30.349533	1.856035	2.002938	716.342000
30.373456	1.856112	2.003194	716.842000
30.394106	1.856664	2.003598	717.342000
30.415910	1.858073	2.003868	717.842000
30.439971	1.859735	2.004235	718.342000
30.461445	1.861661	2.004640	718.843000
30.483157	1.864015	2.004958	719.343000
30.502906	1.866879	2.005272	719.842000
30.523483	1.869836	2.005599	720.342000
30.545422	1.873067	2.005953	720.842000
30.567249	1.876939	2.006339	721.342000
30.586990	1.881512	2.006567	721.842000
30.607658	1.886670	2.006684	722.342000
30.629436	1.891743	2.006821	722.842000
30.650651	1.897480	2.006907	723.342000
30.676123	1.903753	2.007042	723.842000
30.696246	1.910711	2.007221	724.342000
30.715415	1.918030	2.007381	724.843000
30.739020	1.925466	2.007528	725.342000
30.760858	1.933641	2.007662	725.842000
30.781764	1.942292	2.007837	726.342000
30.803907	1.951323	2.008048	726.842000
30.826817	1.960956	2.008344	727.342000
30.855058	1.970714	2.008661	727.842000
30.878226	1.980944	2.008815	728.342000
30.900015	1.991821	2.008846	728.843000
30.916087	2.003630	2.009012	729.342000
30.938991	2.015765	2.009338	729.843000
30.959621	2.028322	2.009636	730.342000
30.981326	2.041482	2.009718	730.842000
30.998486	2.054891	2.009850	731.342000
31.014398	2.068557	2.010031	731.842000
31.036444	2.082406	2.010332	732.342000
31.058540	2.096034	2.010623	732.842000
31.080991	2.109857	2.010934	733.343000
31.100470	2.124156	2.011638	733.842000
31.122097	2.139052	2.012122	734.343000
31.145543	2.154387	2.012627	734.842000
31.168582	2.170023	2.012988	735.342000
31.193097	2.185847	2.013119	735.842000
31.221688	2.202352	2.013229	736.342000
31.233616	2.219481	2.013593	736.842000
31.252438	2.237405	2.014059	737.342000
31.269759	2.255824	2.014385	737.842000
31.289713	2.274295	2.014663	738.342000
31.311953	2.293151	2.015073	738.843000
31.330394	2.312000	2.015519	739.342000
31.356187	2.331267	2.016039	739.842000
31.382599	2.350368	2.016560	740.343000
31.399126	2.369935	2.017026	740.842000
31.422118	2.390471	2.017500	741.342000
31.443354	2.411600	2.018051	741.842000
31.465080	2.432800	2.018491	742.342000
31.485737	2.454173	2.019027	742.842000
31.513972	2.475695	2.019711	743.342000
31.529058	2.497317	2.020412	743.842000
31.550220	2.519426	2.021090	744.342000
31.571236	2.541773	2.021849	744.842000
31.592759	2.564571	2.022676	745.342000
31.614703	2.588054	2.023699	745.843000
31.640873	2.611603	2.024717	746.342000
31.659786	2.635290	2.025704	746.842000
31.674540	2.658903	2.026548	747.342000
31.695480	2.682454	2.027384	747.842000
31.714613	2.706198	2.028215	748.342000
31.734301	2.729555	2.028882	748.842000
31.754011	2.752545	2.029720	749.342000
31.778326	2.775576	2.030643	749.842000
31.800589	2.798585	2.031642	750.343000
31.815653	2.821432	2.032747	750.842000
31.840892	2.844576	2.033794	751.342000
31.860553	2.867434	2.034828	751.842000
31.884208	2.890030	2.036015	752.342000
31.905618	2.913346	2.037255	752.842000
31.929652	2.936637	2.038523	753.342000
31.950947	2.959718	2.039773	753.842000
31.970069	2.982937	2.040942	754.343000
31.992665	3.005920	2.042070	754.842000
32.015806	3.029124	2.043182	755.343000
32.034601	3.052543	2.044554	755.842000
32.054424	3.075978	2.045841	756.342000
32.080566	3.098752	2.047086	756.842000
32.097891	3.121165	2.048387	757.342000
32.115966	3.143576	2.049777	757.843000
32.136582	3.165548	2.051250	758.342000
32.158658	3.186480	2.052687	758.843000
32.178173	3.206998	2.054163	759.342000
32.199501	3.227387	2.055622	759.843000
32.224220	3.247356	2.057128	760.342000
32.246336	3.266693	2.058546	760.842000
32.264903	3.286142	2.059908	761.342000
32.286489	3.305681	2.061413	761.842000
32.307311	3.325092	2.063026	762.342000
32.330475	3.344191	2.064621	762.842000
32.352818	3.362742	2.066234	763.342000
32.373827	3.380985	2.067778	763.842000
32.392956	3.398714	2.069245	764.343000
32.413798	3.416050	2.070973	764.842000
32.436315	3.433534	2.072579	765.343000
32.459722	3.450684	2.074090	765.843000
32.479023	3.466913	2.075634	766.342000
32.500318	3.483008	2.077270	766.842000
32.521618	3.498929	2.078998	767.342000
32.541992	3.514594	2.080593	767.843000
32.563212	3.529174	2.082091	768.342000
32.581593	3.543538	2.083611	768.842000
32.603669	3.557519	2.085347	769.342000
32.626312	3.571405	2.087145	769.842000
32.648182	3.585306	2.088934	770.342000
32.669773	3.598761	2.090778	770.843000
32.691456	3.611215	2.092497	771.342000
32.713570	3.623332	2.094205	771.842000
32.734645	3.635048	2.095965	772.342000
32.755232	3.646552	2.097702	772.842000
32.778171	3.657883	2.099405	773.343000
32.799426	3.669212	2.101090	773.842000
32.820504	3.680486	2.102826	774.342000
32.841822	3.691513	2.104531	774.842000
32.864194	3.702055	2.106285	775.342000
32.886512	3.712005	2.108032	775.843000
32.908742	3.721723	2.109976	776.342000
32.930394	3.731362	2.111765	776.842000
32.951509	3.740806	2.113394	777.342000
32.973252	3.749795	2.114895	777.842000
32.994404	3.758449	2.116496	778.342000
33.018658	3.766662	2.118189	778.842000
33.041633	3.774888	2.120127	779.342000
33.062297	3.782851	2.121870	779.843000
33.083733	3.791076	2.123573	780.342000
33.105298	3.799282	2.125365	780.843000
33.127586	3.806732	2.127322	781.342000
33.147937	3.813188	2.129310	781.842000
33.167281	3.819323	2.131042	782.342000
33.187377	3.825624	2.132784	782.842000
33.210618	3.831822	2.134580	783.343000
33.233655	3.837315	2.136464	783.842000
33.254810	3.842661	2.138277	784.342000
33.275780	3.848541	2.140160	784.842000
33.296833	3.854572	2.141896	785.342000
33.318982	3.860248	2.143560	785.842000
33.341542	3.865663	2.145239	786.342000
33.363777	3.871152	2.146827	786.842000
33.387747	3.876133	2.148705	787.342000
33.410054	3.880736	2.150538	787.842000
33.431881	3.885755	2.152321	788.342000
33.452763	3.890665	2.153964	788.842000
33.473429	3.895929	2.155656	789.342000
33.494417	3.900534	2.157473	789.843000
33.516651	3.903992	2.159265	790.342000
33.539330	3.907147	2.161198	790.843000
33.562226	3.910763	2.162999	791.343000
33.583836	3.914358	2.164655	791.842000
33.605385	3.917660	2.166473	792.343000
33.625708	3.921115	2.168115	792.842000
33.646904	3.924511	2.169902	793.342000
33.668071	3.927565	2.171796	793.842000
33.689836	3.930752	2.173619	794.342000
33.712283	3.933986	2.175495	794.842000
33.736722	3.936645	2.177425	795.342000
33.758074	3.939027	2.179181	795.842000
33.779304	3.941769	2.180697	796.342000
33.801437	3.944644	2.182375	796.842000
33.823139	3.947506	2.184034	797.342000
33.844392	3.949849	2.185801	797.843000
33.867146	3.951904	2.187592	798.342000
33.891222	3.953446	2.189380	798.843000
33.914558	3.954864	2.191098	799.342000
33.936444	3.956672	2.192722	799.843000
33.958427	3.958199	2.194484	800.342000
33.980757	3.959468	2.196041	800.843000
34.002380	3.960277	2.197715	801.342000
34.024561	3.961294	2.199484	801.843000
34.047919	3.961923	2.201183	802.342000
34.070133	3.962102	2.202838	802.842000
34.093641	3.962145	2.204553	803.342000
34.115408	3.962035	2.206266	803.842000
34.136558	3.961735	2.208139	804.342000
34.158530	3.961372	2.209836	804.842000
34.182812	3.961080	2.211659	805.342000
34.205498	3.960342	2.213324	805.842000
34.228476	3.959892	2.214985	806.343000
34.249811	3.959676	2.216797	806.842000
34.271882	3.959692	2.218554	807.342000
34.293973	3.959546	2.220251	807.842000
34.316173	3.959169	2.221956	808.342000
34.337614	3.958744	2.223752	808.842000
34.360750	3.957695	2.225651	809.342000
34.383110	3.956411	2.227598	809.842000
34.404323	3.955129	2.229389	810.342000
34.424604	3.954010	2.231283	810.843000
34.446540	3.953040	2.233048	811.342000
34.468872	3.951701	2.234808	811.842000
34.491170	3.950106	2.236726	812.343000
34.513117	3.948730	2.238471	812.842000
34.534968	3.947703	2.240241	813.342000
34.557292	3.946833	2.242001	813.842000
34.578742	3.945939	2.243651	814.342000
34.600705	3.944611	2.245439	814.842000
34.622147	3.942394	2.247219	815.342000
34.644199	3.939686	2.248821	815.842000
34.667031	3.937061	2.250240	816.343000
34.689066	3.934916	2.251708	816.842000
34.710268	3.932801	2.253438	817.342000
34.731273	3.931264	2.255167	817.842000
34.752644	3.929974	2.256929	818.342000
34.774570	3.928748	2.258632	818.842000
34.795681	3.927696	2.260221	819.342000
34.817517	3.926616	2.261950	819.843000
34.839063	3.925331	2.263710	820.342000
34.862168	3.923520	2.265338	820.842000
34.884769	3.921368	2.267072	821.342000
34.906030	3.918938	2.268732	821.842000
34.926976	3.916454	2.270221	822.343000
34.949107	3.913829	2.271782	822.842000
34.970187	3.910819	2.273498	823.343000
34.992494	3.907689	2.275395	823.842000
35.014067	3.904992	2.277222	824.342000
35.035594	3.902453	2.279012	824.842000
35.059551	3.900082	2.280652	825.342000
35.081716	3.897272	2.282342	825.842000
35.103983	3.893869	2.283988	826.342000
35.125519	3.890727	2.285576	826.842000
35.149292	3.887597	2.287259	827.342000
35.171713	3.884676	2.288997	827.842000
35.194061	3.882353	2.290656	828.342000
35.214993	3.879765	2.292359	828.842000
35.235868	3.876713	2.294032	829.342000
35.257687	3.873208	2.295725	829.842000
35.278995	3.869497	2.297496	830.342000
35.300396	3.866127	2.299271	830.842000
35.320519	3.862245	2.300935	831.342000
35.341693	3.857499	2.302701	831.842000
35.363121	3.852578	2.304507	832.342000
35.384349	3.847800	2.306264	832.842000
35.407424	3.842812	2.307803	833.343000
35.429054	3.838150	2.309391	833.842000
35.451002	3.833890	2.310961	834.343000
35.473336	3.829431	2.312720	834.842000
35.496790	3.824889	2.314430	835.343000
35.515356	3.820257	2.315982	835.842000
35.537582	3.815423	2.317694	836.342000
35.558893	3.810480	2.319585	836.842000
35.579687	3.805544	2.321312	837.342000
35.604584	3.801403	2.323084	837.842000
35.625135	3.796768	2.324758	838.342000
35.650437	3.792148	2.326211	838.843000
35.669968	3.787553	2.327864	839.342000
35.690040	3.782906	2.329505	839.843000
35.713405	3.778185	2.331140	840.342000
35.735325	3.773031	2.332694	840.842000
35.756344	3.767709	2.334382	841.342000
35.784894	3.762411	2.335966	841.843000
35.804486	3.757057	2.337604	842.342000
35.821366	3.751452	2.339117	842.843000
35.842285	3.745493	2.340688	843.342000
35.862105	3.739242	2.342476	843.842000
35.883956	3.733538	2.344091	844.342000
35.904850	3.727678	2.345608	844.842000
35.934101	3.721231	2.347233	845.342000
35.954274	3.714714	2.349008	845.842000
35.974883	3.709227	2.350940	846.343000
36.003140	3.703837	2.352682	846.842000
36.021497	3.698035	2.354281	847.342000
36.038028	3.691901	2.356049	847.842000
36.058035	3.685082	2.357732	848.342000
36.076515	3.678126	2.359392	848.842000
36.098339	3.672128	2.361209	849.342000
36.114270	3.666899	2.362973	849.842000
36.140278	3.661597	2.364541	850.342000
36.159444	3.656444	2.366054	850.843000
36.178537	3.650861	2.367519	851.342000
36.198703	3.644759	2.369025	851.842000
36.223232	3.638390	2.370582	852.342000
36.244700	3.631879	2.372093	852.842000
36.274087	3.625692	2.373792	853.342000
36.298725	3.619405	2.375506	853.842000
36.307592	3.612649	2.377287	854.342000
36.337228	3.606029	2.378970	854.842000
36.363097	3.599723	2.380684	855.342000
36.379812	3.593298	2.382448	855.842000
36.401748	3.586602	2.384196	856.343000
36.426567	3.580165	2.385931	856.842000
36.449222	3.574036	2.387483	857.342000
36.472684	3.568068	2.388904	857.842000
36.494647	3.561962	2.390498	858.342000
36.516279	3.555567	2.392115	858.842000
36.537404	3.547763	2.393820	859.342000
36.559949	3.539906	2.395746	859.842000
36.581693	3.531990	2.397563	860.342000
36.603581	3.524165	2.399293	860.843000
36.624161	3.516271	2.400919	861.342000
36.639346	3.508525	2.402596	861.842000
36.664212	3.500341	2.404124	862.342000
36.679599	3.492502	2.405754	862.842000
36.698380	3.485564	2.407438	863.343000
36.721150	3.478698	2.409207	863.842000
36.746402	3.470816	2.411007	864.342000
36.763973	3.462770	2.412766	864.842000
36.788042	3.455249	2.414367	865.343000
36.808358	3.448332	2.416007	865.842000
36.827463	3.441697	2.417567	866.342000
36.852930	3.434573	2.419141	866.842000
36.873732	3.427716	2.420864	867.343000
36.892963	3.420997	2.422720	867.842000
36.915905	3.413397	2.424403	868.343000
36.938492	3.405663	2.425912	868.842000
36.959591	3.397704	2.427342	869.342000
36.980772	3.389218	2.428934	869.843000
37.000120	3.380570	2.430525	870.342000
37.028290	3.371926	2.432199	870.843000
37.047435	3.363442	2.433744	871.342000
37.067261	3.354705	2.435461	871.842000
37.089859	3.345753	2.437134	872.342000
37.114771	3.336850	2.438771	872.842000
37.134033	3.328156	2.440473	873.342000
37.157929	3.320025	2.442303	873.843000
37.177623	3.311666	2.444045	874.342000
37.197198	3.303655	2.445650	874.842000
37.221124	3.295085	2.447427	875.342000
37.237906	3.285284	2.449260	875.842000
37.261075	3.275297	2.451003	876.342000
37.282584	3.265423	2.452737	876.842000
37.304617	3.256377	2.454274	877.343000
37.324054	3.247531	2.455679	877.842000
37.347513	3.239157	2.457191	878.343000
37.369893	3.230995	2.458879	878.843000
37.389968	3.222660	2.460729	879.342000
37.412633	3.214359	2.462487	879.842000
37.433457	3.206088	2.464113	880.342000
37.456586	3.196796	2.465517	880.842000
37.474625	3.187466	2.467176	881.342000
37.496588	3.178520	2.468845	881.842000
37.518692	3.170768	2.470639	882.342000
37.539917	3.163854	2.472407	882.842000
37.559489	3.156695	2.474238	883.342000
37.580626	3.149083	2.475906	883.842000
37.601553	3.140692	2.477590	884.342000
37.622553	3.131749	2.479207	884.842000
37.642584	3.122586	2.480871	885.342000
37.664438	3.113545	2.482671	885.842000
37.686868	3.104881	2.484531	886.342000
37.710229	3.096487	2.486272	886.842000
37.731096	3.087763	2.487971	887.343000
37.750027	3.079092	2.489629	887.842000
37.771503	3.071265	2.491328	888.343000
37.793855	3.063182	2.493022	888.842000
37.816695	3.054317	2.494747	889.342000
37.836414	3.044752	2.496353	889.842000
37.857584	3.034963	2.497928	890.342000
37.880359	3.025581	2.499642	890.842000
37.902869	3.016867	2.501317	891.342000
37.922662	3.008250	2.503020	891.842000
37.944012	3.000092	2.504735	892.342000
37.966770	2.992111	2.506427	892.843000
37.989127	2.984066	2.508056	893.342000
38.009796	2.976083	2.509864	893.843000
38.031449	2.967846	2.511520	894.342000
38.052090	2.959463	2.513236	894.842000
38.074701	2.951476	2.514996	895.342000
38.098950	2.942762	2.516881	895.842000
38.117716	2.933743	2.518676	896.343000
38.141637	2.924799	2.520470	896.842000
38.162158	2.915408	2.522071	897.343000
38.182685	2.905546	2.523742	897.842000
38.203548	2.894996	2.525616	898.342000
38.224030	2.884408	2.527546	898.842000
38.242989	2.874485	2.529494	899.342000
38.265026	2.865100	2.531356	899.843000
38.286219	2.855883	2.533211	900.342000
38.307364	2.847194	2.534708	900.842000
38.328781	2.838656	2.536242	901.342000
38.350183	2.829879	2.537804	901.842000
38.371474	2.821294	2.539448	902.342000
38.394677	2.813367	2.541222	902.842000
38.416453	2.805453	2.542986	903.342000
38.437504	2.797005	2.544889	903.843000
38.459646	2.787478	2.546688	904.342000
38.482260	2.777050	2.548558	904.842000
38.505280	2.766143	2.550388	905.343000
38.528115	2.755227	2.552046	905.842000
38.549196	2.744588	2.553838	906.343000
38.570503	2.734104	2.555611	906.842000
38.594579	2.723952	2.557336	907.343000
38.615569	2.715372	2.559238	907.842000
38.636894	2.706990	2.561252	908.342000
38.655801	2.698837	2.562991	908.842000
38.676028	2.690368	2.564656	909.343000
38.697833	2.681871	2.566465	909.843000
38.719235	2.674052	2.568462	910.342000
38.740738	2.666277	2.570456	910.843000
38.762419	2.658402	2.572498	911.342000
38.784604	2.650567	2.574571	911.843000
38.806538	2.642471	2.576541	912.342000
38.827788	2.634402	2.578450	912.843000
38.849471	2.626467	2.580370	913.342000
38.870364	2.618979	2.582190	913.842000
38.893024	2.611425	2.583890	914.343000
38.914624	2.604082	2.585862	914.842000
38.937256	2.597216	2.588006	915.342000
38.959445	2.590707	2.589902	915.842000
38.981583	2.584992	2.591828	916.343000
39.003001	2.580206	2.593882	916.842000
39.025775	2.575509	2.595872	917.342000
39.047990	2.570530	2.597814	917.842000
39.070286	2.565305	2.599836	918.342000
39.093677	2.560010	2.601788	918.842000
39.115983	2.554664	2.603524	919.343000
39.138436	2.548970	2.605323	919.842000
39.159140	2.542686	2.607350	920.342000
39.182697	2.536132	2.609483	920.842000
39.202786	2.529589	2.611500	921.342000
39.223725	2.523100	2.613657	921.843000
39.246187	2.517023	2.615844	922.342000
39.271693	2.511363	2.617938	922.843000
39.293414	2.505300	2.620081	923.342000
39.314095	2.499086	2.622199	923.842000
39.336837	2.493543	2.624400	924.342000
39.359714	2.488190	2.626597	924.842000
39.384146	2.482580	2.628827	925.342000
39.405984	2.476732	2.630888	925.842000
39.426823	2.471632	2.632787	926.343000
39.448935	2.466502	2.634873	926.842000
39.471265	2.461292	2.637259	927.342000
39.492193	2.455796	2.639352	927.842000
39.512882	2.449750	2.641506	928.343000
39.534940	2.444143	2.643709	928.842000
39.556389	2.438832	2.645901	929.343000
39.578064	2.433794	2.647990	929.842000
39.599194	2.428708	2.650229	930.342000
39.620883	2.423517	2.652362	930.842000
39.643229	2.418042	2.654618	931.342000
39.666203	2.412480	2.657113	931.843000
39.688499	2.406759	2.659479	932.342000
39.709476	2.401507	2.661525	932.843000
39.731732	2.396992	2.663676	933.342000
39.753325	2.392062	2.666016	933.842000
39.776611	2.387271	2.668223	934.342000
39.798525	2.382514	2.670460	934.842000
39.820511	2.377475	2.672805	935.342000
39.842963	2.371694	2.675231	935.842000
39.864987	2.365904	2.677645	936.342000
39.886462	2.359748	2.680042	936.842000
39.908313	2.353673	2.682619	937.342000
39.930950	2.348390	2.685221	937.842000
39.952743	2.343180	2.687823	938.343000
39.974464	2.337449	2.690225	938.842000
39.995400	2.331706	2.692446	939.342000
40.017364	2.326304	2.694715	939.842000
40.039653	2.320918	2.697185	940.342000
40.061868	2.315612	2.699459	940.842000
40.082969	2.309963	2.701854	941.342000
40.103606	2.303872	2.704496	941.843000
40.125543	2.297348	2.707122	942.342000
40.148423	2.290399	2.709693	942.842000
40.170949	2.283221	2.712249	943.342000
40.191745	2.275895	2.714836	943.842000
40.212777	2.268816	2.717371	944.342000
40.234579	2.261870	2.719857	944.842000
40.258481	2.255332	2.722494	945.342000
40.278878	2.248819	2.725178	945.842000
40.299523	2.242805	2.727879	946.342000
40.321743	2.236740	2.730614	946.842000
40.344339	2.230643	2.733214	947.342000
40.367470	2.224427	2.735840	947.842000
40.387781	2.217783	2.738252	948.343000
40.409177	2.211111	2.740671	948.842000
40.432745	2.203902	2.743539	949.343000
40.455934	2.195706	2.746558	949.842000
40.475826	2.186243	2.749353	950.343000
40.498326	2.176819	2.751975	950.842000
40.521365	2.167961	2.754929	951.342000
40.548773	2.159591	2.757725	951.843000
40.567516	2.151728	2.760555	952.342000
40.590190	2.144702	2.763627	952.842000
40.612331	2.138440	2.766583	953.342000
40.634429	2.131840	2.769430	953.842000
40.654940	2.124689	2.772460	954.342000
40.680784	2.117506	2.775501	954.842000
40.698673	2.110543	2.778338	955.342000
40.719814	2.103387	2.781228	955.843000
40.740284	2.095827	2.784196	956.343000
40.763407	2.087841	2.787284	956.842000
40.782054	2.079619	2.790338	957.343000
40.815865	2.071033	2.793439	957.842000
40.837506	2.062177	2.796362	958.343000
40.855058	2.052959	2.799340	958.842000
40.877876	2.043509	2.802409	959.343000
40.900112	2.034468	2.805441	959.842000
40.922160	2.025706	2.808510	960.342000
40.943257	2.016814	2.811754	960.843000
40.963669	2.007948	2.815183	961.342000
40.983489	1.999006	2.818376	961.843000
40.999258	1.990145	2.821676	962.342000
41.024353	1.981543	2.824906	962.842000
41.041638	1.973170	2.828043	963.342000
41.067842	1.965075	2.831149	963.843000
41.090801	1.957455	2.834339	964.342000
41.113269	1.949540	2.837344	964.842000
41.135102	1.941132	2.840269	965.342000
41.157621	1.932987	2.843398	965.843000
41.179146	1.924552	2.846364	966.342000
41.198932	1.915238	2.849380	966.842000
41.223126	1.905328	2.852384	967.342000
41.245791	1.895135	2.855593	967.842000
41.267097	1.884761	2.858781	968.342000
41.286290	1.874388	2.862115	968.842000
41.307982	1.863994	2.865425	969.342000
41.330109	1.852670	2.868462	969.842000
41.350946	1.840178	2.871647	970.342000
41.373540	1.827492	2.874623	970.842000
41.390701	1.815689	2.877486	971.342000
41.415893	1.804825	2.880426	971.842000
41.436890	1.794085	2.883432	972.342000
41.455999	1.783572	2.886466	972.842000
41.473881	1.772642	2.889455	973.342000
41.500008	1.760896	2.892500	973.842000
41.521052	1.748366	2.895434	974.342000
41.538994	1.735005	2.898382	974.843000
41.564256	1.721297	2.901471	975.342000
41.583705	1.708511	2.904467	975.843000
41.607425	1.695743	2.907422	976.343000
41.630611	1.682450	2.910548	976.842000
41.653695	1.668515	2.913524	977.343000
41.676012	1.653982	2.916522	977.842000
41.695354	1.639021	2.919618	978.342000
41.717150	1.622931	2.922621	978.842000
41.736114	1.606239	2.925455	979.342000
41.755056	1.589803	2.928368	979.842000
41.779049	1.574243	2.931301	980.342000
41.802817	1.558718	2.933830	980.842000
41.821435	1.542877	2.936445	981.343000
41.837910	1.526339	2.939150	981.842000
41.856273	1.508912	2.941569	982.342000
41.875664	1.491879	2.944110	982.843000
41.897016	1.475074	2.946630	983.342000
41.920502	1.458348	2.949164	983.843000
41.939073	1.441712	2.951746	984.342000
41.964347	1.424976	2.954296	984.843000
41.990685	1.407537	2.956698	985.342000
42.012065	1.389410	2.959125	985.842000
42.029120	1.371380	2.961545	986.342000
42.050498	1.353567	2.963735	986.842000
42.072312	1.335096	2.965886	987.343000
42.098573	1.316343	2.968136	987.842000
42.119018	1.297531	2.970331	988.343000
42.141742	1.278079	2.972542	988.842000
42.151472	1.258219	2.974756	989.343000
42.186827	1.239023	2.976880	989.842000
42.208561	1.220260	2.978996	990.343000
42.229527	1.200993	2.981128	990.842000
42.251751	1.181105	2.983159	991.343000
42.270878	1.160974	2.985167	991.842000
42.292137	1.141062	2.987034	992.342000
42.312914	1.121348	2.988782	992.843000
42.335682	1.101586	2.990394	993.342000
42.355687	1.081871	2.992142	993.843000
42.372658	1.061932	2.993753	994.342000
42.400855	1.041928	2.995505	994.843000
42.412109	1.021957	2.997300	995.342000
42.443784	1.002423	2.999048	995.842000
42.460185	0.982806	3.000690	996.342000
42.469963	0.963906	3.002101	996.842000
42.491234	0.946071	3.003321	997.342000
42.515139	0.928442	3.004329	997.842000
42.533397	0.910496	3.005414	998.343000
42.553800	0.892349	3.006498	998.842000
42.575085	0.874489	3.007675	999.342000
42.606364	0.856797	3.008687	999.842000
42.619541	0.839186	3.009544	1000.343000
42.634912	0.821043	3.010442	1000.842000
42.657066	0.803283	3.011500	1001.343000
42.678207	0.786547	3.012427	1001.842000
42.702675	0.769910	3.013306	1002.342000
42.719569	0.752916	3.014048	1002.842000
42.745143	0.736188	3.014631	1003.342000
42.766137	0.720145	3.015298	1003.842000
42.787910	0.703992	3.016008	1004.342000
42.805440	0.688028	3.016813	1004.842000
42.826753	0.672519	3.017684	1005.342000
42.849103	0.657164	3.018355	1005.842000
42.873776	0.642237	3.018982	1006.342000
42.897113	0.627531	3.019540	1006.843000
42.916272	0.612868	3.020209	1007.342000
42.939584	0.598637	3.020697	1007.842000
42.956953	0.584044	3.021237	1008.343000
42.984236	0.569328	3.021858	1008.842000
43.005018	0.555889	3.022380	1009.343000
43.024217	0.542986	3.022850	1009.842000
43.049833	0.532810	3.022957	1010.343000
43.080940	0.524360	3.023083	1010.842000
43.100922	0.514274	3.023682	1011.343000
43.111805	0.500674	3.024568	1011.843000
43.132234	0.487248	3.025132	1012.342000
43.156859	0.474969	3.025253	1012.843000
43.178102	0.464082	3.025173	1013.342000
43.199975	0.454234	3.025255	1013.843000
43.220517	0.444741	3.025254	1014.342000
43.240149	0.435898	3.025286	1014.842000
43.258554	0.427284	3.025599	1015.342000
43.276426	0.418819	3.025830	1015.842000
43.299015	0.412874	3.025800	1016.342000
43.321292	0.404549	3.025956	1016.842000
43.343306	0.397655	3.026039	1017.342000
43.367894	0.389915	3.026302	1017.842000
43.390675	0.381199	3.026766	1018.342000
43.410123	0.370281	3.027658	1018.842000
43.434038	0.364463	3.028430	1019.343000
43.454864	0.360438	3.029227	1019.842000
43.477055	0.357936	3.029743	1020.343000
43.497175	0.355327	3.030106	1020.842000
43.517453	0.352156	3.030305	1021.342000
43.538077	0.348253	3.030406	1021.842000
43.558484	0.342695	3.030474	1022.342000
43.576831	0.340082	3.030410	1022.843000
43.599606	0.340653	3.029767	1023.342000
43.624381	0.336689	3.029488	1023.842000
43.643360	0.332956	3.029483	1024.342000
43.666267	0.329854	3.029382	1024.842000
43.686032	0.326613	3.029664	1025.342000
43.706570	0.324742	3.029552	1025.843000
43.726599	0.322407	3.028978	1026.342000
43.749083	0.317273	3.028427	1026.843000
43.769342	0.315625	3.027908	1027.342000
43.790777	0.314859	3.027491	1027.842000
43.813029	0.314134	3.027053	1028.342000
43.833158	0.314154	3.026571	1028.842000
43.853912	0.314272	3.026349	1029.343000
43.874654	0.314656	3.026178	1029.842000
43.895246	0.314681	3.026098	1030.343000
43.916436	0.314218	3.026087	1030.842000
43.938356	0.312348	3.026182	1031.343000
43.960752	0.314379	3.026136	1031.842000
43.981317	0.314719	3.026142	1032.342000
44.001682	0.313468	3.026284	1032.842000
44.022038	0.313704	3.026194	1033.342000
44.042680	0.313259	3.026388	1033.843000
44.064530	0.314577	3.026480	1034.342000
44.086093	0.315153	3.026435	1034.842000
44.108128	0.316014	3.026251	1035.342000
44.130111	0.317979	3.025866	1035.843000
44.151688	0.315424	3.025962	1036.342000
44.173655	0.313108	3.026263	1036.843000
44.193331	0.312986	3.026208	1037.342000
44.214975	0.313768	3.026218	1037.842000
44.237631	0.315193	3.026087	1038.343000
44.259971	0.315543	3.026071	1038.842000
44.281599	0.314414	3.026298	1039.343000
44.303501	0.315740	3.026180	1039.842000
44.326463	0.317052	3.026157	1040.343000
44.348919	0.317933	3.026180	1040.842000
44.371103	0.320070	3.026119	1041.342000
44.392780	0.320507	3.026219	1041.842000
44.415439	0.319692	3.026411	1042.342000
44.436813	0.320655	3.026308	1042.842000
44.458632	0.322252	3.026177	1043.342000
44.479769	0.324226	3.026324	1043.843000
44.503824	0.325652	3.026667	1044.342000
44.527231	0.328378	3.026659	1044.843000
44.551327	0.330925	3.026519	1045.342000
44.572881	0.332426	3.026334	1045.843000
44.593900	0.333329	3.026169	1046.342000
44.616772	0.336350	3.025874	1046.842000
44.638995	0.334646	3.026287	1047.342000
44.661780	0.333844	3.026791	1047.842000
44.683643	0.328285	3.027729	1048.343000
44.705448	0.329910	3.027906	1048.842000
44.727910	0.333562	3.027863	1049.343000
44.748877	0.336653	3.027875	1049.842000
44.769754	0.341151	3.027741	1050.342000
44.790924	0.347512	3.027366	1050.842000
44.813458	0.349396	3.027181	1051.342000
44.836954	0.355500	3.026728	1051.842000
44.861734	0.363254	3.026332	1052.342000
44.883552	0.368608	3.026023	1052.843000
44.905017	0.371108	3.025932	1053.342000
44.928076	0.373609	3.025711	1053.842000
44.950022	0.376880	3.025586	1054.342000
44.971050	0.377916	3.025786	1054.843000
44.992515	0.378139	3.026108	1055.342000
45.016617	0.381382	3.026098	1055.842000
45.040216	0.384963	3.026173	1056.342000
45.062225	0.390384	3.026071	1056.842000
45.082394	0.395651	3.025954	1057.342000
45.104371	0.402147	3.025848	1057.843000
45.127180	0.407432	3.025865	1058.342000
45.149211	0.411833	3.025899	1058.842000
45.173055	0.415890	3.025853	1059.342000
45.196564	0.419771	3.025774	1059.842000
45.218481	0.423803	3.025656	1060.342000
45.240964	0.428471	3.025623	1060.842000
45.262823	0.433159	3.025562	1061.342000
45.286362	0.438159	3.025570	1061.842000
45.308626	0.443723	3.025539	1062.343000
45.333311	0.450119	3.025515	1062.842000
45.356728	0.457414	3.025387	1063.343000
45.378032	0.463917	3.025443	1063.843000
45.400603	0.470044	3.025592	1064.342000
45.426212	0.475923	3.025662	1064.843000
45.450870	0.481861	3.025774	1065.342000
45.469705	0.487696	3.025808	1065.843000
45.492838	0.493838	3.025624	1066.342000
45.519974	0.500704	3.025476	1066.843000
45.539419	0.508371	3.025345	1067.342000
45.563770	0.515699	3.025331	1067.842000
45.585491	0.522651	3.025377	1068.342000
45.609177	0.529618	3.025490	1068.842000
45.637769	0.536625	3.025563	1069.343000
45.656828	0.544468	3.025597	1069.842000
45.679907	0.552719	3.025535	1070.342000
45.706909	0.561139	3.025608	1070.842000
45.728614	0.569803	3.025563	1071.343000
45.750877	0.578282	3.025519	1071.842000
45.774287	0.586634	3.025528	1072.343000
45.795370	0.594896	3.025499	1072.842000
45.817195	0.603524	3.025485	1073.342000
45.839976	0.611975	3.025550	1073.843000
45.861697	0.620089	3.025726	1074.342000
45.882932	0.628965	3.025811	1074.842000
45.906820	0.637731	3.025945	1075.342000
45.929636	0.647460	3.025909	1075.842000
45.952225	0.657505	3.025735	1076.342000
45.973929	0.667674	3.025684	1076.842000
45.999717	0.677785	3.025628	1077.342000
46.022985	0.688745	3.025369	1077.843000
46.044429	0.699261	3.025178	1078.342000
46.067154	0.710056	3.025100	1078.843000
46.088196	0.720493	3.025070	1079.342000
46.109944	0.730714	3.025044	1079.842000
46.130740	0.742498	3.024992	1080.343000
46.152507	0.754150	3.025032	1080.842000
46.175110	0.767045	3.024937	1081.342000
46.196353	0.777866	3.025003	1081.842000
46.218607	0.790870	3.024913	1082.343000
46.239362	0.801457	3.025072	1082.842000
46.259886	0.814085	3.024964	1083.342000
46.280479	0.824609	3.025107	1083.843000
46.302751	0.836097	3.025269	1084.342000
46.325049	0.847969	3.025395	1084.842000
46.344180	0.862180	3.025383	1085.342000
46.363452	0.876810	3.025357	1085.842000
46.388681	0.890007	3.025233	1086.342000
46.410352	0.900948	3.025216	1086.842000
46.432242	0.913920	3.025135	1087.342000
46.452496	0.928327	3.025035	1087.843000
46.474311	0.943559	3.024832	1088.342000
46.496113	0.958643	3.024676	1088.843000
46.520147	0.973891	3.024656	1089.342000
46.539414	0.989732	3.024647	1089.842000
46.562502	1.005929	3.024566	1090.343000
46.582447	1.021981	3.024353	1090.842000
46.606186	1.038294	3.024135	1091.342000
46.626541	1.055096	3.023997	1091.842000
46.645276	1.071985	3.023904	1092.342000
46.665092	1.089078	3.023763	1092.842000
46.690431	1.106423	3.023525	1093.342000
46.710605	1.124302	3.023212	1093.842000
46.731540	1.142392	3.023023	1094.342000
46.754175	1.160972	3.022733	1094.842000
46.774640	1.179785	3.022534	1095.342000
46.797733	1.198678	3.022457	1095.842000
46.818600	1.218677	3.022374	1096.342000
46.838336	1.238665	3.022279	1096.843000
46.860592	1.258666	3.022230	1097.342000
46.883623	1.278552	3.022148	1097.843000
46.901924	1.298733	3.021975	1098.342000
46.922307	1.319089	3.021827	1098.842000
46.941694	1.334483	3.022231	1099.343000
46.965797	1.354037	3.022364	1099.842000
46.988646	1.376601	3.022285	1100.343000
47.008121	1.400482	3.022025	1100.842000
47.021143	1.425140	3.021728	1101.343000
47.019851	1.449979	3.021500	1101.842000
47.019278	1.473878	3.021238	1102.342000
47.018616	1.495838	3.021093	1102.842000
47.018183	1.515241	3.020827	1103.342000
47.018023	1.531755	3.020620	1103.842000
47.017705	1.545908	3.020494	1104.343000
47.017673	1.557863	3.020409	1104.843000
47.017586	1.567684	3.020194	1105.342000
47.017508	1.575378	3.020330	1105.842000
47.017517	1.581968	3.020347	1106.342000
47.017470	1.587394	3.020143	1106.843000
47.017667	1.591426	3.019879	1107.342000
47.017712	1.594505	3.019702	1107.843000
47.017952	1.596207	3.019426	1108.342000
47.018070	1.597705	3.019385	1108.842000
47.015625	1.598821	3.019403	1109.343000
46.998095	1.599641	3.019531	1109.842000
46.979077	1.600038	3.019658	1110.343000
46.959639	1.599043	3.019722	1110.842000
46.940424	1.595861	3.019926	1111.342000
46.921561	1.589343	3.020051	1111.842000
46.905093	1.580269	3.020330	1112.342000
46.886706	1.569095	3.020610	1112.842000
46.868553	1.555708	3.020713	1113.343000
46.849955	1.540893	3.020571	1113.842000
46.830377	1.525437	3.020529	1114.343000
46.812360	1.509011	3.020620	1114.843000
46.794771	1.491364	3.020764	1115.342000
46.775162	1.473225	3.021025	1115.842000
46.756944	1.454913	3.021418	1116.342000
46.737674	1.436215	3.021686	1116.842000
46.718948	1.416662	3.021808	1117.342000
46.700107	1.397557	3.022024	1117.843000
46.681068	1.378814	3.022152	1118.342000
46.661009	1.359423	3.022381	1118.843000
46.643051	1.340399	3.022615	1119.342000
46.624054	1.322014	3.022691	1119.843000
46.606045	1.303751	3.022841	1120.342000
46.586462	1.285580	3.022959	1120.842000
46.566364	1.267670	3.023204	1121.342000
46.545361	1.249717	3.023576	1121.842000
46.527033	1.232183	3.023887	1122.342000
46.508077	1.215193	3.024021	1122.842000
46.488839	1.198776	3.023997	1123.343000
46.469673	1.182697	3.023863	1123.842000
46.450510	1.166888	3.023918	1124.342000
46.432962	1.150663	3.024117	1124.842000
46.416531	1.134343	3.024383	1125.342000
46.397263	1.118753	3.024515	1125.843000
46.376224	1.103478	3.024553	1126.342000
46.353338	1.088072	3.024563	1126.843000
46.338200	1.072467	3.024575	1127.342000
46.321348	1.057502	3.024683	1127.843000
46.301392	1.043129	3.024693	1128.342000
46.282377	1.029144	3.024722	1128.842000
46.263722	1.015929	3.024692	1129.342000
46.245930	1.002886	3.024718	1129.842000
46.225928	0.989658	3.024928	1130.342000
46.205072	0.976390	3.025076	1130.842000
46.186972	0.962927	3.025106	1131.342000
46.168077	0.949788	3.025094	1131.842000
46.149689	0.937331	3.025081	1132.343000
46.130836	0.925368	3.025103	1132.842000
46.111881	0.913620	3.024901	1133.342000
46.093405	0.901866	3.024968	1133.842000
46.075251	0.889633	3.025173	1134.343000
46.054442	0.877768	3.025490	1134.842000
46.036320	0.866889	3.025782	1135.343000
46.015201	0.856023	3.025887	1135.843000
45.995855	0.844791	3.025890	1136.342000
45.973722	0.833693	3.025769	1136.842000
45.956210	0.822936	3.025575	1137.342000
45.937366	0.812479	3.025350	1137.842000
45.917564	0.801970	3.025143	1138.342000
45.897764	0.791024	3.025002	1138.842000
45.879537	0.780274	3.025108	1139.342000
45.863345	0.769740	3.025320	1139.843000
45.845359	0.759599	3.025510	1140.342000
45.827639	0.749860	3.025551	1140.842000
45.808476	0.740464	3.025455	1141.343000
45.788008	0.731272	3.025526	1141.842000
45.770172	0.722285	3.025656	1142.343000
45.748035	0.713833	3.025658	1142.842000
45.727469	0.705109	3.025823	1143.343000
45.709305	0.695873	3.025927	1143.842000
45.688527	0.687214	3.025874	1144.342000
45.668195	0.678532	3.025806	1144.842000
45.650105	0.670053	3.025850	1145.343000
45.632238	0.661955	3.025779	1145.842000
45.613237	0.653836	3.025691	1146.342000
45.593670	0.645600	3.025563	1146.842000
45.575409	0.637619	3.025526	1147.342000
45.557269	0.629474	3.025572	1147.842000
45.538125	0.621440	3.025542	1148.342000
45.520756	0.613922	3.025620	1148.843000
45.499714	0.606375	3.025763	1149.342000
45.479322	0.599332	3.025878	1149.843000
45.463231	0.592593	3.025948	1150.342000
45.443951	0.586040	3.025934	1150.842000
45.425598	0.579412	3.025914	1151.342000
45.404096	0.572421	3.026005	1151.842000
45.384674	0.565716	3.026223	1152.343000
45.366238	0.559298	3.026355	1152.842000
45.346478	0.552924	3.026366	1153.342000
45.327514	0.546551	3.026282	1153.842000
45.307493	0.539982	3.026216	1154.342000
45.287792	0.533650	3.026103	1154.842000
45.266550	0.527585	3.025974	1155.343000
45.246534	0.521738	3.025937	1155.842000
45.227900	0.515497	3.025872	1156.342000
45.210725	0.509209	3.025825	1156.842000
45.192116	0.503596	3.025832	1157.342000
45.172339	0.498162	3.025826	1157.842000
45.151173	0.492847	3.025859	1158.342000
45.131819	0.487456	3.025897	1158.842000
45.114386	0.482175	3.025724	1159.342000
45.092673	0.477109	3.025512	1159.842000
45.075433	0.472130	3.025544	1160.342000
45.055783	0.466842	3.025538	1160.842000
45.036016	0.461812	3.025459	1161.342000
45.014442	0.457028	3.025352	1161.842000
44.990593	0.452274	3.025338	1162.343000
44.970155	0.446968	3.025371	1162.842000
44.953269	0.442130	3.025603	1163.343000
44.933901	0.437780	3.025833	1163.842000
44.911185	0.433308	3.025896	1164.342000
44.890966	0.428598	3.025914	1164.842000
44.872088	0.424005	3.025969	1165.343000
44.853701	0.419615	3.026006	1165.842000
44.836749	0.415478	3.025956	1166.343000
44.818167	0.411738	3.025880	1166.842000
44.794340	0.407920	3.025916	1167.342000
44.775436	0.404070	3.025974	1167.843000
44.756513	0.400123	3.026124	1168.342000
44.743329	0.395783	3.026203	1168.842000
44.719003	0.391642	3.026144	1169.342000
44.697160	0.387959	3.026159	1169.842000
44.680034	0.384609	3.026036	1170.342000
44.663936	0.380930	3.025851	1170.842000
44.648050	0.377636	3.025899	1171.343000
44.629209	0.374971	3.026139	1171.842000
44.607376	0.371889	3.026125	1172.342000
44.589557	0.368915	3.026164	1172.842000
44.570392	0.366324	3.026193	1173.342000
44.549674	0.363844	3.026213	1173.842000
44.530113	0.361809	3.026484	1174.343000
44.510081	0.359801	3.026906	1174.842000
44.487832	0.357362	3.027057	1175.343000
44.470848	0.354939	3.026865	1175.842000
44.450751	0.352654	3.026580	1176.343000
44.432512	0.350391	3.026446	1176.842000
44.411349	0.348196	3.026444	1177.342000
44.390869	0.346158	3.026392	1177.843000
44.370555	0.344309	3.026314	1178.342000
44.352598	0.342755	3.026087	1178.843000
44.333260	0.341034	3.025967	1179.342000
44.311231	0.338947	3.025886	1179.842000
44.291562	0.337211	3.025766	1180.342000
44.271082	0.336157	3.025691	1180.842000
44.253674	0.335145	3.025501	1181.343000
44.232692	0.333890	3.025307	1181.842000
44.213496	0.332593	3.025343	1182.343000
44.194745	0.331267	3.025386	1182.842000
44.175970	0.329837	3.025344	1183.342000
44.158006	0.328389	3.025287	1183.842000
44.138002	0.326682	3.025408	1184.343000
44.118776	0.325571	3.025369	1184.842000
44.099044	0.324402	3.025397	1185.343000
44.080073	0.323126	3.025447	1185.843000
44.060623	0.322344	3.025422	1186.342000
44.042433	0.322072	3.025552	1186.843000
44.022975	0.321676	3.025527	1187.342000
44.003652	0.320846	3.025661	1187.843000
43.984942	0.319977	3.025856	1188.342000
43.965268	0.319139	3.025907	1188.842000
43.945673	0.318722	3.025941	1189.342000
43.926256	0.318965	3.026204	1189.842000
43.910759	0.319192	3.026428	1190.342000
43.892497	0.318982	3.026528	1190.842000
43.874786	0.318513	3.026467	1191.342000
43.854995	0.318291	3.026462	1191.843000
43.833949	0.318030	3.026492	1192.342000
43.810879	0.317697	3.026463	1192.842000
43.792542	0.317316	3.026192	1193.343000
43.774160	0.317445	3.025891	1193.842000
43.754514	0.318231	3.025691	1194.343000
43.733329	0.319217	3.025839	1194.842000
43.712895	0.319232	3.026093	1195.343000
43.694848	0.318771	3.026036	1195.842000
43.674508	0.318841	3.025882	1196.342000
43.655164	0.319565	3.025799	1196.842000
43.633449	0.320265	3.025924	1197.342000
43.612275	0.320690	3.026082	1197.842000
43.590991	0.321294	3.026225	1198.342000
43.574576	0.322149	3.026275	1198.842000
43.555626	0.322858	3.026257	1199.342000
43.535433	0.324021	3.026150	1199.842000
43.516189	0.325195	3.026128	1200.342000
43.497416	0.326498	3.026045	1200.843000
43.476352	0.327890	3.025905	1201.342000
43.457010	0.329597	3.025894	1201.843000
43.435971	0.331886	3.026009	1202.342000
43.415906	0.334263	3.025902	1202.842000
43.394923	0.337047	3.025732	1203.343000
43.374845	0.339900	3.025588	1203.842000
43.354882	0.342829	3.025587	1204.343000
43.333107	0.345469	3.025560	1204.842000
43.313057	0.348116	3.025594	1205.343000
43.294287	0.351331	3.025712	1205.842000
43.276746	0.354837	3.025851	1206.342000
43.257830	0.358386	3.025911	1206.843000
43.238980	0.362051	3.026044	1207.343000
43.220231	0.365729	3.025953	1207.843000
43.199721	0.370032	3.025796	1208.342000
43.181063	0.374855	3.025617	1208.842000
43.159937	0.379797	3.025357	1209.342000
43.139072	0.385125	3.025227	1209.842000
43.122618	0.390774	3.025234	1210.342000
43.103882	0.396658	3.025329	1210.843000
43.083443	0.402479	3.025252	1211.342000
43.060202	0.408158	3.025207	1211.842000
43.039970	0.414123	3.025230	1212.342000
43.020936	0.420667	3.025286	1212.842000
42.999900	0.427977	3.025250	1213.343000
42.979909	0.434959	3.025245	1213.842000
42.960200	0.441909	3.025046	1214.343000
42.941535	0.449133	3.024642	1214.842000
42.923166	0.456933	3.024244	1215.342000
42.903869	0.465099	3.023775	1215.842000
42.883011	0.474052	3.023378	1216.342000
42.862174	0.483851	3.023061	1216.842000
42.843135	0.493870	3.022680	1217.343000
42.825540	0.503918	3.022260	1217.843000
42.807604	0.514131	3.021855	1218.342000
42.788651	0.524113	3.021484	1218.843000
42.767518	0.534421	3.021117	1219.342000
42.748069	0.544798	3.020688	1219.842000
42.730194	0.555344	3.020301	1220.342000
42.711070	0.566362	3.019812	1220.843000
42.691655	0.577807	3.019421	1221.342000
42.673129	0.589957	3.019239	1221.842000
42.653569	0.602017	3.018967	1222.342000
42.641573	0.613993	3.018535	1222.842000
42.618448	0.626547	3.017989	1223.343000
42.598528	0.639414	3.017341	1223.842000
42.579320	0.652273	3.016646	1224.342000
42.559585	0.665261	3.016000	1224.842000
42.542858	0.678883	3.015262	1225.342000
42.524272	0.693209	3.014527	1225.842000
42.502377	0.707808	3.013756	1226.342000
42.492441	0.722338	3.013061	1226.842000
42.471545	0.736421	3.012265	1227.343000
42.447269	0.750471	3.011331	1227.842000
42.435830	0.764006	3.010501	1228.342000
42.413089	0.777762	3.009712	1228.842000
42.394338	0.792206	3.008834	1229.342000
42.374750	0.807743	3.007942	1229.843000
42.353691	0.823347	3.006897	1230.342000
42.334642	0.839030	3.005751	1230.843000
42.316714	0.855060	3.004631	1231.342000
42.299451	0.871345	3.003703	1231.842000
42.280597	0.887385	3.002789	1232.342000
42.262033	0.903322	3.001748	1232.842000
42.243406	0.920206	3.000715	1233.342000
42.225136	0.937065	2.999427	1233.842000
42.203533	0.953809	2.998213	1234.342000
42.184641	0.970261	2.996904	1234.842000
42.165296	0.987074	2.995569	1235.342000
42.145527	1.004273	2.994194	1235.842000
42.126788	1.021327	2.992794	1236.343000
42.107112	1.038480	2.991297	1236.842000
42.087805	1.055103	2.989727	1237.342000
42.067778	1.071755	2.988058	1237.842000
42.048510	1.088020	2.986348	1238.342000
42.029098	1.104320	2.984688	1238.843000
42.009176	1.120882	2.983032	1239.342000
41.986543	1.137675	2.981236	1239.843000
41.967663	1.154856	2.979322	1240.342000
41.949823	1.172763	2.977474	1240.842000
41.928870	1.190771	2.975769	1241.342000
41.911960	1.207875	2.974055	1241.842000
41.893909	1.224136	2.972319	1242.342000
41.876190	1.240420	2.970318	1242.842000
41.858819	1.256659	2.968306	1243.343000
41.841882	1.272835	2.966396	1243.842000
41.822033	1.288933	2.964642	1244.342000
41.805227	1.304652	2.962841	1244.842000
41.784047	1.320197	2.960949	1245.343000
41.770536	1.336067	2.958919	1245.842000
41.753060	1.351677	2.956726	1246.343000
41.733235	1.367019	2.954496	1246.842000
41.715234	1.382626	2.952466	1247.342000
41.695428	1.398084	2.950460	1247.842000
41.676291	1.412839	2.948183	1248.342000
41.656658	1.427419	2.945920	1248.843000
41.636056	1.442262	2.943614	1249.342000
41.618019	1.457525	2.941313	1249.842000
41.598871	1.473676	2.938838	1250.342000
41.573633	1.490569	2.936407	1250.842000
41.559079	1.507015	2.934086	1251.342000
41.539194	1.522498	2.931858	1251.842000
41.518457	1.537125	2.929568	1252.342000
41.500306	1.551087	2.927258	1252.843000
41.482077	1.564828	2.924722	1253.342000
41.463496	1.578666	2.922173	1253.842000
41.441873	1.592974	2.919559	1254.343000
41.426137	1.607185	2.917034	1254.842000
41.404898	1.621433	2.914649	1255.343000
41.385025	1.635068	2.912388	1255.842000
41.365959	1.647353	2.910015	1256.343000
41.345007	1.658632	2.907561	1256.842000
41.327423	1.669980	2.905003	1257.342000
41.308151	1.681618	2.902502	1257.842000
41.288504	1.693463	2.899979	1258.342000
41.268480	1.706090	2.897296	1258.843000
41.244938	1.718704	2.894492	1259.342000
41.226205	1.730849	2.891608	1259.843000
41.206704	1.743188	2.888546	1260.342000
41.185617	1.755514	2.885701	1260.842000
41.165335	1.767925	2.882926	1261.342000
41.150101	1.779554	2.880171	1261.842000
41.128220	1.790673	2.877413	1262.342000
41.109063	1.801281	2.874665	1262.843000
41.088638	1.811556	2.871759	1263.342000
41.070511	1.821876	2.868837	1263.842000
41.052225	1.832235	2.866208	1264.342000
41.034855	1.842738	2.863694	1264.842000
41.014672	1.852651	2.861117	1265.343000
40.995587	1.862086	2.858368	1265.842000
40.976439	1.871229	2.855555	1266.343000
40.957504	1.880746	2.852765	1266.842000
40.935675	1.890343	2.849928	1267.342000
40.913328	1.899245	2.847306	1267.842000
40.896533	1.907261	2.844648	1268.342000
40.876890	1.915215	2.841796	1268.842000
40.859008	1.923311	2.839112	1269.342000
40.839233	1.931051	2.836419	1269.842000
40.820322	1.938643	2.833685	1270.342000
40.799838	1.946361	2.831015	1270.842000
40.780731	1.954277	2.828383	1271.342000
40.763223	1.962403	2.825865	1271.842000
40.745474	1.970305	2.823214	1272.342000
40.726184	1.977809	2.820487	1272.842000
40.705137	1.985245	2.817849	1273.342000
40.685630	1.992764	2.815300	1273.842000
40.667852	1.999931	2.812652	1274.343000
40.648177	2.006716	2.809984	1274.842000
40.627121	2.013071	2.807455	1275.342000
40.608157	2.019988	2.804857	1275.842000
40.588461	2.027274	2.802173	1276.342000
40.569543	2.034290	2.799337	1276.842000
40.548883	2.041251	2.796730	1277.342000
40.528052	2.048516	2.794159	1277.842000
40.508497	2.055525	2.791440	1278.343000
40.488242	2.061889	2.788954	1278.842000
40.468013	2.068206	2.786337	1279.342000
40.446504	2.074564	2.783683	1279.842000
40.428163	2.081151	2.781086	1280.342000
40.405869	2.087650	2.778497	1280.842000
40.387555	2.093846	2.775845	1281.342000
40.368646	2.099988	2.772921	1281.843000
40.347654	2.105982	2.770030	1282.342000
40.325919	2.112024	2.767427	1282.843000
40.309163	2.118218	2.764807	1283.342000
40.289691	2.124657	2.762110	1283.842000
40.267138	2.130941	2.759681	1284.343000
40.249352	2.136584	2.757284	1284.842000
40.230258	2.143045	2.754846	1285.342000
40.208505	2.149968	2.752357	1285.842000
40.188489	2.156586	2.749883	1286.342000
40.167371	2.163187	2.747380	1286.842000
40.149350	2.169779	2.745071	1287.342000
40.127136	2.175784	2.742694	1287.842000
40.107701	2.181093	2.740342	1288.343000
40.089810	2.187071	2.737990	1288.842000
40.067790	2.193079	2.735698	1289.342000
40.047935	2.199056	2.733178	1289.843000
40.028479	2.205176	2.730796	1290.342000
40.007156	2.212080	2.728494	1290.843000
39.987684	2.218746	2.726065	1291.342000
39.967709	2.224893	2.723628	1291.843000
39.946742	2.231181	2.721387	1292.342000
39.924649	2.237349	2.719246	1292.843000
39.903631	2.244040	2.716845	1293.342000
39.878938	2.250739	2.714392	1293.843000
39.862466	2.257136	2.711848	1294.343000
39.841941	2.263639	2.709367	1294.842000
39.822607	2.270201	2.707017	1295.343000
39.801466	2.276886	2.704685	1295.842000
39.785266	2.283408	2.702362	1296.342000
39.763254	2.289544	2.700129	1296.842000
39.749020	2.295394	2.697943	1297.342000
39.728464	2.301109	2.695529	1297.842000
39.708024	2.306824	2.693107	1298.343000
39.684725	2.311992	2.691017	1298.842000
39.671355	2.317147	2.688869	1299.343000
39.648444	2.322240	2.686702	1299.842000
39.632388	2.327831	2.684522	1300.342000
39.613028	2.333363	2.682490	1300.842000
39.590359	2.338673	2.680527	1301.342000
39.565958	2.343533	2.678663	1301.842000
39.547247	2.348590	2.676629	1302.342000
39.536138	2.353764	2.674493	1302.842000
39.517582	2.358983	2.672416	1303.342000
39.497972	2.364417	2.670452	1303.842000
39.478304	2.369212	2.668352	1304.342000
39.458624	2.373896	2.666225	1304.842000
39.439423	2.379046	2.664160	1305.342000
39.420135	2.384443	2.662356	1305.842000
39.398196	2.389717	2.660473	1306.342000
39.374646	2.395015	2.658491	1306.842000
39.356663	2.400310	2.656585	1307.343000
39.337930	2.405460	2.654761	1307.842000
39.319903	2.410552	2.652852	1308.343000
39.300412	2.416035	2.650922	1308.842000
39.277824	2.421006	2.648978	1309.342000
39.260852	2.425984	2.647196	1309.842000
39.242645	2.430984	2.645282	1310.342000
39.221512	2.435591	2.643412	1310.842000
39.203998	2.439718	2.641567	1311.342000
39.186008	2.444192	2.639692	1311.842000
39.165701	2.449238	2.637826	1312.342000
39.145013	2.454651	2.635979	1312.842000
39.125490	2.459871	2.633979	1313.342000
39.105563	2.464330	2.632170	1313.842000
39.086749	2.468385	2.630358	1314.342000
39.065473	2.472459	2.628376	1314.842000
39.046897	2.476583	2.626401	1315.343000
39.028212	2.481110	2.624566	1315.842000
39.007214	2.486169	2.622748	1316.342000
38.990171	2.491586	2.620918	1316.842000
38.967141	2.497243	2.619006	1317.343000
38.948348	2.502775	2.616953	1317.842000
38.929165	2.508295	2.614924	1318.342000
38.909020	2.514408	2.613100	1318.842000
38.890452	2.520282	2.611380	1319.342000
38.873690	2.525595	2.609771	1319.843000
38.854794	2.531077	2.608166	1320.342000
38.836310	2.536361	2.606486	1320.842000
38.817194	2.541198	2.604859	1321.342000
38.796033	2.545591	2.603345	1321.842000
38.777181	2.549637	2.601856	1322.342000
38.757327	2.553558	2.600191	1322.842000
38.738687	2.558533	2.598327	1323.342000
38.720246	2.563637	2.596462	1323.842000
38.701598	2.568587	2.594730	1324.342000
38.681830	2.573563	2.592787	1324.843000
38.660570	2.578753	2.590979	1325.342000
38.638177	2.584523	2.589254	1325.842000
38.617364	2.590839	2.587403	1326.343000
38.598587	2.597268	2.585688	1326.842000
38.578810	2.603571	2.584058	1327.343000
38.556144	2.609886	2.582481	1327.842000
38.534613	2.616918	2.580828	1328.342000
38.515700	2.623683	2.579139	1328.842000
38.495181	2.630344	2.577363	1329.342000
38.475358	2.637855	2.575604	1329.842000
38.453939	2.645804	2.573783	1330.343000
38.429902	2.653596	2.572019	1330.842000
38.412216	2.661612	2.570215	1331.342000
38.397339	2.669360	2.568327	1331.843000
38.379748	2.676784	2.566393	1332.342000
38.358239	2.683908	2.564819	1332.842000
38.335574	2.690651	2.563300	1333.342000
38.319745	2.697875	2.561682	1333.843000
38.297572	2.705545	2.560003	1334.342000
38.280020	2.713225	2.558178	1334.842000
38.259897	2.721212	2.556522	1335.343000
38.242207	2.729065	2.554887	1335.842000
38.223615	2.737112	2.553294	1336.342000
38.206719	2.745435	2.551606	1336.842000
38.185206	2.754010	2.549848	1337.343000
38.167787	2.763101	2.548107	1337.842000
38.149826	2.772271	2.546572	1338.342000
38.129957	2.781492	2.544983	1338.842000
38.106745	2.790471	2.543497	1339.342000
38.086913	2.800278	2.541959	1339.842000
38.066074	2.809499	2.540369	1340.342000
38.049548	2.818165	2.538791	1340.842000
38.030554	2.826451	2.537039	1341.342000
38.008389	2.834276	2.535382	1341.842000
37.987933	2.842098	2.533749	1342.342000
37.969244	2.850076	2.532147	1342.843000
37.951755	2.858652	2.530581	1343.342000
37.928655	2.867475	2.528819	1343.843000
37.910777	2.876210	2.527128	1344.342000
37.890287	2.884597	2.525634	1344.842000
37.872614	2.892872	2.524157	1345.342000
37.849953	2.901091	2.522541	1345.842000
37.827504	2.909459	2.520851	1346.343000
37.805298	2.917887	2.519143	1346.842000
37.790659	2.926476	2.517537	1347.343000
37.772219	2.934954	2.515815	1347.842000
37.751406	2.943152	2.514228	1348.342000
37.733573	2.951025	2.512602	1348.842000
37.711418	2.958725	2.511085	1349.342000
37.692995	2.966017	2.509397	1349.842000
37.674547	2.973863	2.507675	1350.342000
37.655332	2.981916	2.506032	1350.843000
37.637644	2.989308	2.504585	1351.342000
37.617464	2.995634	2.503119	1351.842000
37.599926	3.001861	2.501732	1352.342000
37.579291	3.008188	2.500242	1352.843000
37.559900	3.014872	2.498761	1353.342000
37.540283	3.021834	2.497277	1353.842000
37.523610	3.029096	2.495818	1354.342000
37.502747	3.036708	2.494399	1354.842000
37.482858	3.044043	2.492906	1355.342000
37.460212	3.051315	2.491332	1355.843000
37.442248	3.059242	2.489706	1356.343000
37.423354	3.067746	2.488129	1356.842000
37.401173	3.076000	2.486664	1357.342000
37.378981	3.083680	2.485204	1357.842000
37.362793	3.090545	2.483562	1358.342000
37.344354	3.097339	2.481708	1358.842000
37.324138	3.104363	2.479918	1359.343000
37.301890	3.111947	2.478375	1359.842000
37.287020	3.120171	2.476874	1360.342000
37.268124	3.128887	2.475398	1360.843000
37.248629	3.137443	2.474153	1361.342000
37.232538	3.145620	2.472786	1361.843000
37.212366	3.153497	2.471292	1362.342000
37.191030	3.161023	2.469759	1362.843000
37.173226	3.168646	2.468284	1363.342000
37.153346	3.175940	2.466835	1363.843000
37.132876	3.183079	2.465378	1364.342000
37.114827	3.190346	2.463719	1364.842000
37.095978	3.197257	2.462223	1365.342000
37.075042	3.204452	2.460782	1365.843000
37.055355	3.212223	2.459310	1366.343000
37.037302	3.220170	2.457953	1366.842000
37.018002	3.227801	2.456625	1367.342000
36.998345	3.235370	2.455239	1367.842000
36.977985	3.242998	2.453615	1368.342000
36.956059	3.250438	2.451908	1368.842000
36.938841	3.257358	2.450209	1369.343000
36.920616	3.264168	2.448756	1369.842000
36.897193	3.271607	2.447191	1370.342000
36.878747	3.280078	2.445663	1370.842000
36.863991	3.289423	2.444179	1371.342000
36.845263	3.298952	2.442560	1371.843000
36.824052	3.308461	2.440951	1372.342000
36.806639	3.317075	2.439472	1372.843000
36.786897	3.325529	2.438280	1373.342000
36.768626	3.334148	2.437059	1373.842000
36.751903	3.342413	2.435716	1374.342000
36.734407	3.350212	2.434059	1374.843000
36.713791	3.358636	2.432311	1375.342000
36.695607	3.368751	2.430564	1375.842000
36.680455	3.376753	2.429116	1376.343000
36.663075	3.383820	2.427695	1376.842000
36.643281	3.390716	2.426276	1377.343000
36.623423	3.397046	2.424716	1377.842000
36.603027	3.402485	2.423342	1378.343000
36.586274	3.407662	2.421838	1378.842000
36.567427	3.414108	2.420403	1379.343000
36.549540	3.421340	2.419089	1379.842000
36.529069	3.428909	2.417728	1380.342000
36.506442	3.436566	2.416408	1380.842000
36.486265	3.443238	2.414992	1381.342000
36.468393	3.448384	2.413497	1381.843000
36.447159	3.453026	2.412022	1382.342000
36.429827	3.458041	2.410641	1382.842000
36.413351	3.464099	2.409260	1383.342000
36.390388	3.470720	2.407810	1383.842000
36.369935	3.476936	2.406373	1384.342000
36.356309	3.482950	2.404818	1384.843000
36.334339	3.489380	2.403105	1385.342000
36.309561	3.495578	2.401412	1385.842000
36.294577	3.500978	2.399971	1386.342000
36.271709	3.506473	2.398723	1386.842000
36.253508	3.512622	2.397563	1387.343000
36.234642	3.518826	2.396233	1387.842000
36.216243	3.524476	2.394752	1388.343000
36.197911	3.529552	2.393314	1388.842000
36.177961	3.534238	2.391760	1389.342000
36.161847	3.539061	2.390390	1389.842000
36.142385	3.544176	2.388867	1390.342000
36.124931	3.549540	2.387251	1390.842000
36.107499	3.555235	2.385731	1391.342000
36.090746	3.560846	2.384419	1391.842000
36.074310	3.566466	2.383035	1392.342000
36.051083	3.572460	2.381670	1392.842000
36.030787	3.579004	2.380376	1393.342000
36.014347	3.585563	2.378911	1393.843000
35.992554	3.591581	2.377462	1394.342000
35.972499	3.597296	2.376055	1394.843000
35.953625	3.603291	2.374519	1395.342000
35.934323	3.608970	2.372824	1395.842000
35.917219	3.614709	2.371104	1396.342000
35.899653	3.620747	2.369594	1396.843000
35.882517	3.626530	2.368297	1397.343000
35.864947	3.631685	2.366982	1397.842000
35.846166	3.636906	2.365696	1398.343000
35.823718	3.642576	2.364281	1398.842000
35.805472	3.648441	2.362733	1399.343000
35.789952	3.654095	2.361397	1399.842000
35.772162	3.659675	2.360186	1400.342000
35.749617	3.665356	2.358952	1400.842000
35.731999	3.670838	2.357471	1401.342000
35.713536	3.676693	2.355944	1401.842000
35.692408	3.682722	2.354449	1402.342000
35.673694	3.688370	2.352976	1402.842000
35.652891	3.693799	2.351558	1403.342000
35.632888	3.699291	2.350068	1403.842000
35.614417	3.704647	2.348698	1404.342000
35.595770	3.709807	2.347294	1404.843000
35.577659	3.714839	2.345890	1405.342000
35.561387	3.720027	2.344473	1405.842000
35.540713	3.725363	2.342882	1406.342000
35.519610	3.730848	2.341426	1406.842000
35.498929	3.736232	2.340088	1407.343000
35.481474	3.741203	2.338662	1407.842000
35.458483	3.745967	2.337238	1408.343000
35.441044	3.750803	2.335622	1408.842000
35.416968	3.755763	2.333966	1409.342000
35.401308	3.760659	2.332281	1409.842000
35.383394	3.765369	2.330839	1410.342000
35.367087	3.770193	2.329559	1410.842000
35.344929	3.774945	2.328231	1411.342000
35.327491	3.779521	2.326655	1411.842000
35.308432	3.783670	2.325003	1412.342000
35.289309	3.787543	2.323413	1412.842000
35.270180	3.791547	2.321990	1413.342000
35.248566	3.795755	2.320635	1413.843000
35.231104	3.800189	2.319328	1414.342000
35.214547	3.804744	2.317979	1414.843000
35.192286	3.808935	2.316561	1415.342000
35.175381	3.812494	2.315154	1415.842000
35.154530	3.816417	2.313703	1416.342000
35.134284	3.820166	2.312125	1416.842000
35.112172	3.823771	2.310587	1417.342000
35.092603	3.826851	2.309189	1417.842000
35.077897	3.829549	2.307672	1418.342000
35.056349	3.832436	2.306175	1418.842000
35.037954	3.835470	2.304442	1419.342000
35.020131	3.838587	2.302867	1419.842000
35.000879	3.842155	2.301391	1420.342000
34.980351	3.845816	2.300032	1420.842000
34.959398	3.849320	2.298662	1421.342000
34.937666	3.852259	2.297168	1421.842000
34.919312	3.855326	2.295701	1422.342000
34.897639	3.857954	2.294328	1422.842000
34.875042	3.860440	2.292902	1423.342000
34.855105	3.863243	2.291459	1423.843000
34.837479	3.865958	2.289823	1424.342000
34.816875	3.868972	2.288168	1424.843000
34.798949	3.871762	2.286645	1425.342000
34.782457	3.874500	2.285138	1425.842000
34.765066	3.877020	2.283586	1426.342000
34.744284	3.879379	2.281936	1426.842000
34.726636	3.881406	2.280379	1427.342000
34.707635	3.883495	2.279003	1427.842000
34.687205	3.885390	2.277670	1428.342000
34.662199	3.887366	2.276419	1428.842000
34.646646	3.889357	2.274971	1429.342000
34.628867	3.891385	2.273312	1429.842000
34.609383	3.893780	2.271699	1430.343000
34.585360	3.896084	2.270244	1430.842000
34.567014	3.898289	2.268613	1431.342000
34.543479	3.900315	2.267002	1431.842000
34.525586	3.901946	2.265322	1432.342000
34.507259	3.902652	2.263643	1432.843000
34.488209	3.896203	2.262314	1433.342000
34.471370	3.889637	2.260919	1433.843000
34.452026	3.886231	2.259432	1434.342000
34.432788	3.885281	2.257946	1434.842000
34.408765	3.886332	2.256363	1435.342000
34.392304	3.888482	2.254758	1435.842000
34.373806	3.890861	2.253355	1436.342000
34.352899	3.893805	2.252059	1436.842000
34.335431	3.897732	2.250670	1437.342000
34.316437	3.901781	2.249284	1437.842000
34.297077	3.905631	2.247829	1438.342000
34.271240	3.908882	2.246440	1438.842000
34.258664	3.911781	2.244867	1439.342000
34.239650	3.914804	2.243449	1439.842000
34.217717	3.917572	2.242081	1440.342000
34.200659	3.920018	2.240533	1440.842000
34.179178	3.921826	2.238925	1441.342000
34.156561	3.922662	2.237447	1441.842000
34.134375	3.923344	2.235812	1442.342000
34.119406	3.924259	2.234189	1442.842000
34.100793	3.924797	2.232661	1443.342000
34.075009	3.925164	2.231076	1443.843000
34.056182	3.925569	2.229658	1444.342000
34.041090	3.925308	2.228118	1444.842000
34.017065	3.925429	2.226546	1445.342000
33.995146	3.926050	2.224912	1445.842000
33.975281	3.926907	2.223289	1446.342000
33.954440	3.927482	2.221783	1446.842000
33.935739	3.927745	2.220323	1447.342000
33.919394	3.928179	2.218994	1447.842000
33.901667	3.928472	2.217538	1448.342000
33.885126	3.928807	2.215840	1448.842000
33.867833	3.929417	2.214160	1449.343000
33.846247	3.929793	2.212671	1449.842000
33.830141	3.929576	2.211378	1450.342000
33.813507	3.929449	2.209971	1450.842000
33.794302	3.929520	2.208615	1451.342000
33.771021	3.929561	2.207213	1451.842000
33.750311	3.929572	2.205708	1452.342000
33.735165	3.929526	2.204205	1452.842000
33.715921	3.929189	2.202688	1453.342000
33.693504	3.928485	2.201206	1453.842000
33.675411	3.927877	2.199611	1454.342000
33.655633	3.927111	2.198096	1454.842000
33.636832	3.926031	2.196512	1455.342000
33.621481	3.924322	2.194963	1455.842000
33.602673	3.922997	2.193474	1456.342000
33.581628	3.922179	2.191994	1456.842000
33.560788	3.921482	2.190490	1457.342000
33.543951	3.920482	2.189181	1457.842000
33.524214	3.918772	2.187657	1458.343000
33.504493	3.916723	2.185971	1458.842000
33.484626	3.914838	2.184343	1459.343000
33.465530	3.912434	2.182896	1459.842000
33.447451	3.909762	2.181401	1460.343000
33.427256	3.906974	2.179864	1460.842000
33.408628	3.904552	2.178357	1461.343000
33.382561	3.902201	2.176808	1461.842000
33.363726	3.899775	2.175264	1462.343000
33.349285	3.897128	2.173684	1462.842000
33.333255	3.894321	2.172088	1463.342000
33.315225	3.891525	2.170480	1463.843000
33.295146	3.888995	2.169071	1464.342000
33.274184	3.886258	2.167647	1464.842000
33.251889	3.883669	2.166132	1465.342000
33.237002	3.880441	2.164789	1465.843000
33.219350	3.876803	2.163424	1466.342000
33.201071	3.873586	2.162002	1466.842000
33.181686	3.870342	2.160608	1467.342000
33.163818	3.866783	2.159000	1467.842000
33.144772	3.863330	2.157419	1468.342000
33.125773	3.859587	2.155914	1468.842000
33.107322	3.855635	2.154422	1469.343000
33.087253	3.851669	2.152790	1469.842000
33.067048	3.848029	2.151189	1470.343000
33.048369	3.843892	2.149730	1470.842000
33.030762	3.839832	2.148343	1471.342000
33.011453	3.835604	2.146946	1471.842000
32.991693	3.831219	2.145490	1472.342000
32.973047	3.826460	2.144077	1472.842000
32.953705	3.821951	2.142816	1473.342000
32.935281	3.817263	2.141593	1473.842000
32.914002	3.812395	2.140129	1474.342000
32.896501	3.807195	2.138434	1474.842000
32.877763	3.802412	2.136620	1475.342000
32.859863	3.797311	2.134848	1475.843000
32.843644	3.791617	2.133314	1476.342000
32.820665	3.785777	2.131681	1476.843000
32.801923	3.780052	2.129981	1477.342000
32.782846	3.774118	2.128344	1477.842000
32.763382	3.768201	2.126855	1478.342000
32.746959	3.762638	2.125343	1478.842000
32.724233	3.757080	2.123979	1479.343000
32.710326	3.751303	2.122438	1479.842000
32.688722	3.745022	2.120778	1480.342000
32.670057	3.738409	2.119176	1480.842000
32.644632	3.731247	2.117496	1481.343000
32.636263	3.723780	2.115966	1481.842000
32.616243	3.716154	2.114533	1482.343000
32.598027	3.708281	2.113129	1482.842000
32.579367	3.700068	2.111685	1483.342000
32.561666	3.691893	2.110182	1483.842000
32.544131	3.683706	2.108673	1484.343000
32.525726	3.675680	2.107201	1484.843000
32.506006	3.667652	2.105719	1485.342000
32.480809	3.659307	2.104243	1485.843000
32.465755	3.650718	2.102805	1486.342000
32.449130	3.641865	2.101279	1486.842000
32.431180	3.632252	2.099755	1487.342000
32.410769	3.622466	2.098082	1487.842000
32.391428	3.612249	2.096518	1488.342000
32.371178	3.602120	2.095018	1488.842000
32.351648	3.591882	2.093650	1489.343000
32.332082	3.581549	2.092390	1489.842000
32.316857	3.570334	2.091020	1490.343000
32.296215	3.558825	2.089497	1490.842000
32.271008	3.547444	2.087953	1491.342000
32.253467	3.535627	2.086378	1491.842000
32.239816	3.523415	2.084797	1492.342000
32.221330	3.511024	2.083318	1492.842000
32.200020	3.498181	2.081685	1493.342000
32.182286	3.484868	2.080246	1493.842000
32.167006	3.471218	2.078860	1494.343000
32.150327	3.457680	2.077459	1494.843000
32.123029	3.444797	2.076154	1495.342000
32.107797	3.431695	2.074786	1495.842000
32.091031	3.417948	2.073380	1496.342000
32.071088	3.403595	2.071974	1496.842000
32.049255	3.389083	2.070620	1497.342000
32.031055	3.373867	2.069140	1497.842000
32.011479	3.358674	2.067821	1498.342000
31.992163	3.343085	2.066385	1498.842000
31.967876	3.326822	2.065045	1499.342000
31.950811	3.310633	2.063735	1499.842000
31.928802	3.294138	2.062392	1500.342000
31.907507	3.277064	2.060878	1500.842000
31.884738	3.259566	2.059461	1501.343000
31.875610	3.241752	2.058197	1501.842000
31.853433	3.223715	2.057027	1502.342000
31.826990	3.205548	2.055671	1502.842000
31.809838	3.187268	2.054370	1503.342000
31.797688	3.168792	2.052982	1503.842000
31.781530	3.150258	2.051721	1504.342000
31.762936	3.131358	2.050258	1504.842000
31.743365	3.112678	2.048738	1505.342000
31.726920	3.094157	2.047395	1505.842000
31.708508	3.075882	2.046143	1506.342000
31.689048	3.057785	2.045038	1506.843000
31.669601	3.039474	2.043969	1507.342000
31.649116	3.020896	2.042899	1507.843000
31.630429	3.001849	2.041937	1508.342000
31.611738	2.982491	2.040944	1508.842000
31.593608	2.963331	2.039966	1509.342000
31.575029	2.943851	2.038874	1509.842000
31.554880	2.923994	2.037880	1510.343000
31.535651	2.904026	2.036846	1510.842000
31.516584	2.884320	2.035970	1511.343000
31.498293	2.864332	2.035186	1511.842000
31.479095	2.844751	2.034282	1512.342000
31.460336	2.825264	2.033337	1512.842000
31.444188	2.805996	2.032433	1513.342000
31.418678	2.786666	2.031522	1513.842000
31.399692	2.767257	2.030694	1514.342000
31.381912	2.747285	2.029955	1514.842000
31.363388	2.726920	2.029155	1515.342000
31.345084	2.706395	2.028118	1515.842000
31.326239	2.686375	2.027176	1516.342000
31.311160	2.666896	2.026316	1516.843000
31.298776	2.647876	2.025526	1517.342000
31.276533	2.629176	2.024792	1517.842000
31.255233	2.610854	2.024187	1518.342000
31.236772	2.592993	2.023688	1518.842000
31.216437	2.575607	2.023230	1519.342000
31.194684	2.558305	2.022694	1519.842000
31.173718	2.541101	2.022083	1520.343000
31.157726	2.523741	2.021426	1520.842000
31.139825	2.506008	2.020776	1521.342000
31.123425	2.488094	2.020103	1521.842000
31.104898	2.470432	2.019341	1522.342000
31.083552	2.453406	2.018691	1522.842000
31.069971	2.437008	2.018076	1523.343000
31.052438	2.421090	2.017488	1523.842000
31.033837	2.404739	2.016885	1524.342000
31.014516	2.388547	2.016526	1524.842000
30.996439	2.372927	2.016272	1525.342000
30.976334	2.357614	2.015887	1525.842000
30.959457	2.342985	2.015370	1526.342000
30.938336	2.328586	2.015053	1526.842000
30.918693	2.314127	2.014764	1527.342000
30.897530	2.299970	2.014491	1527.842000
30.878871	2.285711	2.014131	1528.342000
30.860513	2.271788	2.013589	1528.843000
30.839528	2.258272	2.013078	1529.342000
30.823120	2.244778	2.012750	1529.842000
30.804153	2.231840	2.012454	1530.342000
30.782523	2.219311	2.012212	1530.842000
30.765532	2.206802	2.011955	1531.343000
30.746157	2.194172	2.011764	1531.842000
30.723122	2.181553	2.011537	1532.342000
30.705196	2.169266	2.011037	1532.842000
30.687989	2.157324	2.010421	1533.342000
30.667102	2.146412	2.010025	1533.842000
30.646856	2.135967	2.009758	1534.342000
30.631487	2.125647	2.009389	1534.842000
30.613480	2.115158	2.009187	1535.342000
30.592969	2.104885	2.009021	1535.842000
30.571970	2.095359	2.008839	1536.342000
30.553359	2.085777	2.008633	1536.843000
30.534214	2.076795	2.008525	1537.342000
30.517151	2.068128	2.008341	1537.842000
30.496561	2.059696	2.008011	1538.342000
30.477576	2.051901	2.007616	1538.842000
30.458968	2.044931	2.007216	1539.342000
30.439050	2.038292	2.006712	1539.843000
30.414366	2.031790	2.006311	1540.343000
30.397842	2.025253	2.005998	1540.842000
30.380923	2.018972	2.005760	1541.342000
30.360927	2.013452	2.005378	1541.842000
30.340930	2.008012	2.005022	1542.342000
30.321774	2.003180	2.004783	1542.842000
30.305324	1.998522	2.004546	1543.342000
30.284874	1.994401	2.004491	1543.842000
30.260670	1.990394	2.004352	1544.342000
30.240896	1.986627	2.004084	1544.842000
30.223342	1.983318	2.003829	1545.342000
30.206421	1.980265	2.003698	1545.843000
30.190507	1.977368	2.003508	1546.342000
30.168686	1.974755	2.003133	1546.843000
30.148401	1.972706	2.002903	1547.342000
30.132124	1.971088	2.002745	1547.842000
30.111679	1.969876	2.002701	1548.342000
30.092259	1.968944	2.002497	1548.842000
30.072945	1.968157	2.002134	1549.342000
30.053711	1.967750	2.002043	1549.842000
30.030878	1.968128	2.001890	1550.342000
30.010107	1.968737	2.001524	1550.843000
29.991518	1.969026	2.001208	1551.342000
29.971536	1.969654	2.000867	1551.842000
29.953567	1.970778	2.000398	1552.342000
29.932090	1.972352	1.999782	1552.842000
29.907190	1.974224	1.999260	1553.343000
29.889170	1.976666	1.998811	1553.842000
29.873736	1.979167	1.998436	1554.343000
29.849427	1.981855	1.998003	1554.842000
29.831073	1.984641	1.997436	1555.342000
29.819609	1.987898	1.996831	1555.843000
29.797085	1.991735	1.996398	1556.342000
29.774665	1.996087	1.995909	1556.843000
29.753775	2.000746	1.995329	1557.342000
29.734810	2.005572	1.994777	1557.842000
29.715873	2.010706	1.994292	1558.342000
29.704667	2.015774	1.993720	1558.842000
29.682164	2.021208	1.993373	1559.342000
29.658815	2.026800	1.992925	1559.843000
29.637961	2.033027	1.992315	1560.342000
29.626389	2.039277	1.991654	1560.842000
29.602462	2.045601	1.991054	1561.343000
29.583419	2.052248	1.990540	1561.842000
29.563349	2.059222	1.989988	1562.343000
29.548867	2.066361	1.989427	1562.842000
29.530272	2.073840	1.988753	1563.342000
29.510718	2.081512	1.988136	1563.842000
29.489669	2.089586	1.987482	1564.342000
29.471853	2.098023	1.986785	1564.842000
29.447236	2.106348	1.986094	1565.343000
29.433215	2.115413	1.985430	1565.842000
29.412958	2.124770	1.984728	1566.342000
29.389870	2.133811	1.983919	1566.842000
29.377412	2.143191	1.983086	1567.342000
29.358166	2.152482	1.982287	1567.843000
29.334005	2.161846	1.981400	1568.342000
29.319265	2.171434	1.980573	1568.843000
29.299253	2.181443	1.979849	1569.342000
29.281680	2.191811	1.979008	1569.842000
29.261391	2.202136	1.978122	1570.342000
29.239395	2.212705	1.977259	1570.842000
29.222532	2.223711	1.976428	1571.342000
29.204449	2.234795	1.975448	1571.842000
29.177497	2.245763	1.974367	1572.343000
29.157269	2.256892	1.973303	1572.842000
29.145257	2.268541	1.972382	1573.342000
29.127016	2.280283	1.971197	1573.842000
29.110340	2.292077	1.970098	1574.342000
29.090988	2.303746	1.968977	1574.842000
29.071644	2.315587	1.967934	1575.343000
29.051749	2.327413	1.966901	1575.842000
29.024878	2.339157	1.965721	1576.342000
29.012446	2.351220	1.964610	1576.842000
28.993831	2.363447	1.963443	1577.342000
28.967084	2.375445	1.962182	1577.842000
28.949858	2.387428	1.960857	1578.342000
28.926714	2.400136	1.959558	1578.842000
28.907455	2.413230	1.958379	1579.342000
28.897887	2.426362	1.957289	1579.842000
28.877718	2.439093	1.956013	1580.342000
28.850544	2.451802	1.954691	1580.842000
28.834239	2.464576	1.953372	1581.342000
28.815060	2.477290	1.951906	1581.842000
28.794485	2.490113	1.950507	1582.343000
28.774727	2.503117	1.949190	1582.842000
28.759039	2.515962	1.947787	1583.343000
28.742037	2.528651	1.946424	1583.842000
28.720574	2.541081	1.944968	1584.342000
28.700091	2.553366	1.943556	1584.842000
28.681203	2.565326	1.942170	1585.342000
28.665757	2.577628	1.940710	1585.842000
28.649540	2.590391	1.939212	1586.342000
28.626299	2.603181	1.937770	1586.842000
28.610184	2.615977	1.936378	1587.342000
28.590108	2.628202	1.935040	1587.842000
28.572605	2.640014	1.933617	1588.342000
28.555295	2.652000	1.931903	1588.842000
28.538149	2.663816	1.930174	1589.342000
28.515497	2.675445	1.928678	1589.842000
28.493007	2.687128	1.927345	1590.342000
28.474897	2.698577	1.925827	1590.842000
28.451110	2.710367	1.924133	1591.342000
28.430106	2.722668	1.922505	1591.842000
28.413101	2.734622	1.920855	1592.343000
28.398543	2.746141	1.919235	1592.842000
28.381926	2.757191	1.917614	1593.342000
28.363450	2.768626	1.915917	1593.842000
28.343554	2.780188	1.914329	1594.342000
28.324691	2.791503	1.912625	1594.842000
28.305868	2.802404	1.910938	1595.342000
28.294783	2.813461	1.909281	1595.842000
28.275216	2.824295	1.907593	1596.342000
28.256405	2.834867	1.905934	1596.842000
28.237713	2.845207	1.904347	1597.342000
28.222063	2.854981	1.902741	1597.843000
28.204526	2.864220	1.901072	1598.342000
28.184948	2.873977	1.899372	1598.842000
28.165199	2.884127	1.897655	1599.342000
28.139360	2.894209	1.895925	1599.842000
28.123933	2.904036	1.894163	1600.342000
28.109296	2.913881	1.892346	1600.842000
28.091119	2.923521	1.890606	1601.342000
28.067892	2.933166	1.888940	1601.842000
28.050133	2.942957	1.887252	1602.342000
28.029567	2.952997	1.885412	1602.842000
28.010586	2.962431	1.883680	1603.343000
27.989120	2.971548	1.881956	1603.842000
27.973076	2.980623	1.880241	1604.342000
27.951912	2.990025	1.878650	1604.842000
27.933026	2.999525	1.877023	1605.342000
27.913683	3.008609	1.875396	1605.842000
27.896143	3.017461	1.873698	1606.342000
27.877948	3.026468	1.872114	1606.842000
27.860696	3.035410	1.870380	1607.342000
27.840314	3.044646	1.868748	1607.843000
27.818926	3.053497	1.866986	1608.342000
27.801279	3.061960	1.865013	1608.842000
27.785827	3.070310	1.862901	1609.342000
27.767621	3.078361	1.861017	1609.842000
27.751115	3.086062	1.859311	1610.342000
27.730747	3.093558	1.857731	1610.842000
27.708238	3.101329	1.856271	1611.342000
27.689650	3.109154	1.854499	1611.842000
27.679946	3.116655	1.852691	1612.342000
27.659167	3.123944	1.850920	1612.842000
27.639636	3.130996	1.849176	1613.342000
27.617971	3.138225	1.847239	1613.842000
27.602038	3.145872	1.845297	1614.342000
27.579497	3.153554	1.843564	1614.842000
27.563242	3.160925	1.841976	1615.342000
27.545484	3.167868	1.840419	1615.842000
27.529971	3.174571	1.838908	1616.342000
27.511456	3.181300	1.837473	1616.842000
27.494452	3.188082	1.835904	1617.342000
27.472487	3.194929	1.834097	1617.842000
27.452314	3.201351	1.832380	1618.342000
27.431050	3.207527	1.830553	1618.843000
27.411716	3.213804	1.828765	1619.342000
27.392980	3.220381	1.827024	1619.843000
27.376055	3.227141	1.825257	1620.342000
27.358768	3.233524	1.823644	1620.842000
27.344752	3.239531	1.822097	1621.342000
27.325604	3.245397	1.820501	1621.842000
27.303525	3.250927	1.818892	1622.342000
27.285995	3.256265	1.817246	1622.842000
27.270195	3.261304	1.815411	1623.343000
27.244788	3.266167	1.813572	1623.842000
27.223626	3.271162	1.811909	1624.342000
27.210418	3.276905	1.810276	1624.842000
27.194924	3.282343	1.808535	1625.342000
27.169959	3.287211	1.806930	1625.842000
27.153035	3.291940	1.805189	1626.342000
27.132598	3.296855	1.803519	1626.842000
27.116833	3.302084	1.801874	1627.342000
27.091931	3.306976	1.800288	1627.842000
27.073963	3.311421	1.798921	1628.342000
27.051311	3.316134	1.797484	1628.842000
27.035269	3.321496	1.795895	1629.342000
27.018364	3.326411	1.794199	1629.842000
27.006099	3.330856	1.792420	1630.342000
26.986213	3.335443	1.790772	1630.842000
26.958816	3.340456	1.789312	1631.342000
26.946765	3.344760	1.787867	1631.842000
26.927783	3.348849	1.786320	1632.342000
26.910745	3.352710	1.784678	1632.842000
26.884561	3.356355	1.782964	1633.343000
26.869738	3.359954	1.781316	1633.842000
26.852603	3.363514	1.779704	1634.342000
26.834076	3.366714	1.778120	1634.842000
26.816073	3.370276	1.776413	1635.342000
26.797443	3.373841	1.774817	1635.842000
26.783757	3.377033	1.773326	1636.342000
26.761796	3.380028	1.771692	1636.842000
26.742679	3.382456	1.769996	1637.342000
26.720084	3.384706	1.768487	1637.842000
26.703244	3.386899	1.766722	1638.342000
26.685298	3.389325	1.765028	1638.842000
26.662911	3.391659	1.763290	1639.342000
26.639494	3.393801	1.761504	1639.843000
26.620737	3.395983	1.759811	1640.342000
26.613060	3.398288	1.758291	1640.842000
26.592013	3.400614	1.756839	1641.342000
26.569986	3.402729	1.755320	1641.843000
26.555030	3.404497	1.753849	1642.342000
26.538193	3.406111	1.752363	1642.843000
26.521353	3.407486	1.750845	1643.343000
26.504737	3.409222	1.749355	1643.842000
26.486194	3.410661	1.747737	1644.342000
26.463671	3.411833	1.745978	1644.842000
26.444683	3.412729	1.744419	1645.342000
26.426090	3.413526	1.742951	1645.842000
26.407086	3.413976	1.741556	1646.342000
26.379456	3.414464	1.740029	1646.842000
26.360794	3.414951	1.738441	1647.342000
26.341107	3.415491	1.736687	1647.842000
26.321078	3.416216	1.735098	1648.342000
26.308796	3.417177	1.733500	1648.842000
26.293215	3.417404	1.731965	1649.342000
26.275093	3.417482	1.730352	1649.843000
26.256966	3.417620	1.728699	1650.342000
26.238248	3.417921	1.727050	1650.842000
26.219787	3.417954	1.725607	1651.342000
26.200251	3.417724	1.724093	1651.843000
26.181617	3.417035	1.722523	1652.342000
26.160696	3.415725	1.720873	1652.842000
26.142374	3.414622	1.719271	1653.343000
26.121666	3.413964	1.717632	1653.842000
26.106547	3.413669	1.716136	1654.342000
26.087752	3.413312	1.714706	1654.842000
26.069268	3.412642	1.713160	1655.342000
26.049716	3.411837	1.711519	1655.842000
26.029037	3.410933	1.709933	1656.342000
26.009918	3.409086	1.708401	1656.842000
25.990085	3.406871	1.706808	1657.343000
25.970866	3.405424	1.705539	1657.842000
25.950351	3.404056	1.704112	1658.342000
25.933878	3.402868	1.702617	1658.842000
25.916939	3.400975	1.701001	1659.342000
25.897125	3.398769	1.699361	1659.842000
25.871929	3.396492	1.697794	1660.342000
25.854200	3.394309	1.696410	1660.842000
25.835241	3.392069	1.694961	1661.342000
25.817850	3.389833	1.693494	1661.842000
25.796320	3.387576	1.691900	1662.342000
25.777878	3.384890	1.690109	1662.842000
25.759231	3.381543	1.688574	1663.342000
25.737899	3.377514	1.687064	1663.843000
25.719338	3.373718	1.685658	1664.342000
25.699778	3.370270	1.684181	1664.842000
25.684018	3.366703	1.682563	1665.342000
25.661584	3.363351	1.681082	1665.842000
25.644754	3.359508	1.679744	1666.342000
25.628735	3.355336	1.678341	1666.842000
25.611542	3.351183	1.676868	1667.342000
25.589713	3.347175	1.675325	1667.842000
25.570901	3.343052	1.673727	1668.342000
25.550582	3.338744	1.672009	1668.843000
25.530415	3.334861	1.670159	1669.342000
25.509793	3.330738	1.668457	1669.842000
25.494947	3.326114	1.666961	1670.342000
25.473111	3.321078	1.665482	1670.842000
25.455179	3.316148	1.664030	1671.342000
25.434506	3.311881	1.662611	1671.842000
25.412030	3.307141	1.661039	1672.342000
25.392612	3.301898	1.659464	1672.842000
25.370830	3.296296	1.658155	1673.342000
25.353085	3.290279	1.656826	1673.843000
25.334807	3.284210	1.655350	1674.342000
25.314673	3.277545	1.653850	1674.842000
25.293127	3.270576	1.652338	1675.342000
25.276283	3.263857	1.650887	1675.842000
25.255917	3.257422	1.649248	1676.342000
25.236432	3.251333	1.647599	1676.842000
25.218158	3.245132	1.645908	1677.342000
25.202222	3.238493	1.644279	1677.842000
25.179138	3.231616	1.642683	1678.343000
25.162876	3.224285	1.641285	1678.842000
25.142058	3.217075	1.639754	1679.342000
25.125113	3.209700	1.638257	1679.842000
25.104805	3.201843	1.636839	1680.342000
25.084637	3.193718	1.635363	1680.842000
25.066373	3.185658	1.633744	1681.342000
25.049398	3.177740	1.632072	1681.843000
25.029071	3.169954	1.630610	1682.342000
25.005994	3.162445	1.629285	1682.842000
24.986568	3.154097	1.628076	1683.342000
24.966147	3.145199	1.626749	1683.842000
24.948287	3.135997	1.625141	1684.343000
24.929047	3.127262	1.623555	1684.842000
24.909894	3.118581	1.622030	1685.342000
24.886752	3.109184	1.620368	1685.842000
24.868671	3.099250	1.618747	1686.342000
24.853485	3.088978	1.617333	1686.842000
24.833893	3.078595	1.615812	1687.342000
24.817826	3.068116	1.614314	1687.842000
24.801055	3.057394	1.612711	1688.343000
24.779710	3.046940	1.611131	1688.842000
24.762054	3.036783	1.609411	1689.342000
24.740765	3.026359	1.607854	1689.842000
24.722678	3.015653	1.606400	1690.342000
24.704062	3.004436	1.604877	1690.843000
24.683269	2.992924	1.603420	1691.342000
24.668525	2.981047	1.602132	1691.843000
24.645565	2.968635	1.600667	1692.342000
24.621637	2.955959	1.599191	1692.842000
24.607105	2.942940	1.597684	1693.342000
24.588924	2.929952	1.596320	1693.842000
24.568147	2.916578	1.594856	1694.342000
24.545907	2.902690	1.593393	1694.843000
24.523320	2.888684	1.591914	1695.342000
24.504593	2.874358	1.590303	1695.842000
24.491968	2.859767	1.588727	1696.342000
24.471030	2.844738	1.587244	1696.842000
24.451453	2.829341	1.585851	1697.342000
24.428921	2.813383	1.584288	1697.842000
24.404392	2.796852	1.582573	1698.342000
24.385280	2.779950	1.580862	1698.842000
24.371234	2.762466	1.579394	1699.342000
24.348796	2.744197	1.577823	1699.842000
24.332279	2.725573	1.576367	1700.342000
24.316150	2.707026	1.574953	1700.843000
24.297414	2.688119	1.573530	1701.342000
24.278107	2.669216	1.572169	1701.842000
24.258163	2.650231	1.570776	1702.342000
24.238361	2.631078	1.569281	1702.842000
24.215839	2.611396	1.567799	1703.342000
24.199254	2.590741	1.566232	1703.842000
24.179410	2.569071	1.564667	1704.343000
24.155804	2.546863	1.563245	1704.842000
24.127670	2.524782	1.561775	1705.342000
24.110748	2.501808	1.560308	1705.842000
24.093214	2.477345	1.558824	1706.343000
24.072357	2.452470	1.557299	1706.842000
24.047781	2.426593	1.555853	1707.342000
24.030739	2.399957	1.554668	1707.842000
24.009740	2.372542	1.553506	1708.342000
23.989486	2.344284	1.552037	1708.842000
23.974886	2.315852	1.550465	1709.343000
23.959739	2.287004	1.548914	1709.842000
23.936224	2.257850	1.547374	1710.342000
23.917807	2.228510	1.546040	1710.842000
23.895026	2.199052	1.544733	1711.342000
23.876271	2.169223	1.543265	1711.843000
23.860556	2.138590	1.541799	1712.342000
23.839856	2.107199	1.540666	1712.842000
23.816101	2.075296	1.539610	1713.342000
23.801235	2.042267	1.538580	1713.842000
23.779960	2.008598	1.537520	1714.342000
23.758322	1.974310	1.536416	1714.842000
23.739392	1.939571	1.535260	1715.342000
23.719308	1.904160	1.534067	1715.842000
23.701453	1.868330	1.532916	1716.342000
23.679252	1.832603	1.531808	1716.842000
23.658139	1.796296	1.530883	1717.343000
23.638625	1.758931	1.530090	1717.842000
23.624105	1.720712	1.529137	1718.342000
23.601409	1.682567	1.528085	1718.842000
23.580323	1.644085	1.527199	1719.342000
23.561225	1.606003	1.526486	1719.842000
23.540297	1.568253	1.525843	1720.342000
23.524753	1.529750	1.525197	1720.842000
23.502118	1.491620	1.524575	1721.342000
23.483660	1.453211	1.524086	1721.843000
23.465045	1.414969	1.523552	1722.342000
23.445978	1.377420	1.523081	1722.842000
23.429411	1.340148	1.522602	1723.342000
23.410591	1.302901	1.522226	1723.843000
23.386857	1.265798	1.521925	1724.342000
23.370242	1.228943	1.521615	1724.842000
23.347940	1.192974	1.521332	1725.342000
23.330008	1.157404	1.521153	1725.842000
23.318848	1.122397	1.520952	1726.342000
23.296408	1.088012	1.520737	1726.842000
23.281113	1.054546	1.520623	1727.342000
23.260648	1.021982	1.520610	1727.842000
23.238788	0.990449	1.520620	1728.342000
23.221571	0.959670	1.520718	1728.842000
23.204126	0.929555	1.521031	1729.342000
23.183886	0.899831	1.521165	1729.842000
23.166987	0.870726	1.521198	1730.342000
23.143695	0.842620	1.521333	1730.842000
23.124655	0.815358	1.521316	1731.342000
23.106024	0.788781	1.521263	1731.842000
23.085699	0.762975	1.521267	1732.342000
23.068478	0.737942	1.521419	1732.842000
23.045729	0.713433	1.521651	1733.342000
23.030131	0.689869	1.521974	1733.843000
23.006994	0.667353	1.522349	1734.342000
22.986160	0.644907	1.522517	1734.842000
22.972028	0.622507	1.522648	1735.343000
22.954714	0.601077	1.522893	1735.842000
22.929416	0.580654	1.523182	1736.342000
22.911635	0.560764	1.523551	1736.842000
22.894485	0.541701	1.523664	1737.343000
22.879806	0.523211	1.523690	1737.842000
22.861541	0.505982	1.523809	1738.342000
22.839197	0.489746	1.523886	1738.842000
22.817130	0.474203	1.523858	1739.342000
22.803658	0.458909	1.524033	1739.842000
22.781308	0.443942	1.524185	1740.342000
22.760638	0.429521	1.524197	1740.842000
22.742108	0.415664	1.524276	1741.342000
22.723099	0.402139	1.524361	1741.842000
22.710586	0.389118	1.524343	1742.342000
22.687658	0.376685	1.524392	1742.842000
22.665033	0.364837	1.524432	1743.342000
22.648860	0.353212	1.524479	1743.842000
22.631891	0.341831	1.524728	1744.342000
22.611075	0.331366	1.524919	1744.843000
22.587034	0.321447	1.525148	1745.342000
22.566744	0.311732	1.525279	1745.842000
22.548508	0.302345	1.525434	1746.342000
22.534485	0.293607	1.525398	1746.842000
22.515485	0.285147	1.525391	1747.342000
22.490875	0.277192	1.525381	1747.842000
22.475840	0.269456	1.525570	1748.342000
22.458782	0.261866	1.525676	1748.842000
22.433185	0.254710	1.525614	1749.342000
22.408495	0.247982	1.525550	1749.842000
22.389718	0.241457	1.525447	1750.342000
22.375089	0.235044	1.525286	1750.842000
22.355574	0.229180	1.525209	1751.342000
22.332925	0.223135	1.525193	1751.842000
22.321430	0.216861	1.525221	1752.342000
22.296844	0.210805	1.525260	1752.842000
22.274309	0.205402	1.525384	1753.342000
22.254536	0.200746	1.525492	1753.842000
22.246131	0.196202	1.525590	1754.342000
22.225188	0.191520	1.525700	1754.842000
22.203358	0.187057	1.525623	1755.342000
22.181297	0.182958	1.525549	1755.842000
22.160037	0.179048	1.525595	1756.342000
22.144282	0.175186	1.525719	1756.842000
22.126214	0.171762	1.525855	1757.342000
22.111247	0.169014	1.525952	1757.842000
22.093251	0.166612	1.525791	1758.342000
22.080211	0.164866	1.525691	1758.842000
22.065318	0.163428	1.525772	1759.343000
22.041820	0.162865	1.525665	1759.842000
22.022075	0.163111	1.525473	1760.343000
22.002791	0.163980	1.525273	1760.842000
21.980229	0.165508	1.525255	1761.343000
21.962425	0.167305	1.525341	1761.843000
21.943531	0.169818	1.525323	1762.342000
21.920636	0.173141	1.525226	1762.843000
21.904743	0.177851	1.525178	1763.342000
21.885251	0.183467	1.525263	1763.843000
21.866663	0.189907	1.525250	1764.342000
21.849368	0.197089	1.525086	1764.842000
21.831710	0.205488	1.525029	1765.342000
21.813611	0.214821	1.524753	1765.842000
21.792959	0.224985	1.524684	1766.342000
21.779513	0.235892	1.524508	1766.842000
21.758317	0.247726	1.524275	1767.342000
21.739876	0.260422	1.524118	1767.842000
21.724982	0.273711	1.523848	1768.342000
21.703621	0.287901	1.523488	1768.842000
21.677851	0.303128	1.523060	1769.342000
21.658307	0.319221	1.522681	1769.842000
21.643846	0.335989	1.522051	1770.342000
21.625948	0.353499	1.521385	1770.842000
21.602982	0.371746	1.520817	1771.342000
21.585290	0.391013	1.520194	1771.842000
21.564634	0.411161	1.519430	1772.342000
21.550081	0.432112	1.518691	1772.842000
21.533371	0.453703	1.518091	1773.342000
21.509523	0.475189	1.517421	1773.842000
21.492836	0.496765	1.516423	1774.342000
21.478378	0.518757	1.515404	1774.842000
21.460346	0.541109	1.514358	1775.342000
21.441528	0.563815	1.513362	1775.842000
21.421556	0.586994	1.512267	1776.342000
21.400078	0.610391	1.511091	1776.842000
21.377509	0.634450	1.509764	1777.342000
21.363036	0.659152	1.508303	1777.842000
21.344792	0.684210	1.506696	1778.342000
21.326255	0.709369	1.504956	1778.842000
21.306794	0.734604	1.503131	1779.342000
21.287769	0.760011	1.501432	1779.842000
21.262094	0.785477	1.499886	1780.342000
21.244936	0.810596	1.498419	1780.842000
21.224887	0.836019	1.496660	1781.342000
21.207260	0.862193	1.494660	1781.842000
21.188095	0.888256	1.492639	1782.342000
21.169388	0.913873	1.490667	1782.842000
21.152321	0.939701	1.488780	1783.342000
21.128623	0.965568	1.486907	1783.842000
21.115323	0.991621	1.485074	1784.342000
21.095407	1.017237	1.483080	1784.842000
21.074586	1.042068	1.481021	1785.342000
21.054934	1.065951	1.479045	1785.842000
21.030696	1.089714	1.477061	1786.342000
21.015276	1.113197	1.475044	1786.842000
21.004164	1.136492	1.472994	1787.342000
20.986266	1.158968	1.470995	1787.842000
20.964818	1.180296	1.468800	1788.342000
20.947168	1.201154	1.466616	1788.842000
20.927353	1.222073	1.464486	1789.342000
20.909895	1.242484	1.462277	1789.842000
20.890468	1.262066	1.460091	1790.342000
20.873144	1.281464	1.458191	1790.842000
20.852609	1.300497	1.456292	1791.342000
20.834646	1.319957	1.454219	1791.842000
20.815570	1.338780	1.452128	1792.342000
20.794824	1.356549	1.450096	1792.842000
20.773117	1.373768	1.447980	1793.342000
20.752084	1.390613	1.445783	1793.842000
20.734159	1.407265	1.443682	1794.342000
20.715725	1.423635	1.441600	1794.842000
20.697875	1.439903	1.439492	1795.342000
20.678641	1.456207	1.437273	1795.842000
20.656887	1.471895	1.435062	1796.342000
20.641290	1.487559	1.432809	1796.842000
20.622838	1.503331	1.430419	1797.342000
20.604285	1.519145	1.428080	1797.842000
20.584061	1.534091	1.425671	1798.343000
20.565756	1.549238	1.423352	1798.842000
20.546572	1.564725	1.421296	1799.342000
20.525567	1.579734	1.419214	1799.842000
20.505825	1.594204	1.417284	1800.342000
20.482726	1.608886	1.415148	1800.842000
20.463054	1.623506	1.412768	1801.342000
20.446270	1.637692	1.410500	1801.842000
20.429709	1.651840	1.408423	1802.342000
20.410357	1.666181	1.406236	1802.842000
20.390286	1.680293	1.403976	1803.342000
20.372280	1.694465	1.401742	1803.842000
20.352757	1.708683	1.399546	1804.342000
20.333972	1.722250	1.397475	1804.842000
20.314319	1.735513	1.395461	1805.342000
20.296641	1.748870	1.393492	1805.842000
20.279762	1.762289	1.391554	1806.342000
20.258592	1.775751	1.389380	1806.843000
20.239322	1.788671	1.387235	1807.342000
20.220752	1.801106	1.385014	1807.842000
20.202804	1.812800	1.382876	1808.342000
20.184237	1.824540	1.380767	1808.842000
20.162696	1.836477	1.378822	1809.342000
20.141846	1.848176	1.376930	1809.842000
20.122623	1.860376	1.374938	1810.342000
20.103759	1.872640	1.372845	1810.842000
20.082633	1.884618	1.370825	1811.342000
20.063502	1.896508	1.368643	1811.842000
20.041522	1.907957	1.366446	1812.342000
20.018051	1.919528	1.364288	1812.842000
19.995132	1.930920	1.362262	1813.342000
19.981138	1.942263	1.360390	1813.842000
19.963869	1.953523	1.358502	1814.342000
19.941195	1.964054	1.356384	1814.842000
19.922107	1.973579	1.354473	1815.342000
19.907714	1.982518	1.352642	1815.842000
19.888070	1.991609	1.350777	1816.342000
19.864291	2.000611	1.348864	1816.842000
19.844051	2.009659	1.346867	1817.342000
19.828024	2.018563	1.344893	1817.842000
19.808253	2.027370	1.343009	1818.342000
19.790044	2.035889	1.340956	1818.842000
19.772196	2.044152	1.338881	1819.342000
19.754842	2.052414	1.336808	1819.842000
19.732468	2.060486	1.335000	1820.342000
19.709211	2.068231	1.333245	1820.842000
19.689972	2.075491	1.331529	1821.343000
19.668029	2.082196	1.329823	1821.842000
19.651126	2.088823	1.328025	1822.342000
19.626616	2.095164	1.326094	1822.842000
19.612259	2.101326	1.324072	1823.342000
19.592550	2.107154	1.322096	1823.843000
19.569032	2.112755	1.320237	1824.342000
19.547869	2.118329	1.318422	1824.842000
19.527517	2.123816	1.316594	1825.342000
19.508406	2.129053	1.314724	1825.843000
19.493680	2.134196	1.312851	1826.342000
19.476562	2.139367	1.311052	1826.842000
19.457632	2.144289	1.309163	1827.342000
19.432858	2.148628	1.307258	1827.842000
19.419523	2.152704	1.305582	1828.342000
19.402012	2.156441	1.304019	1828.842000
19.375863	2.159954	1.302466	1829.342000
19.352931	2.163240	1.300817	1829.842000
19.334319	2.166432	1.299084	1830.342000
19.317386	2.170101	1.297190	1830.842000
19.299728	2.173396	1.295286	1831.342000
19.282483	2.176410	1.293712	1831.842000
19.261261	2.179309	1.292034	1832.342000
19.239661	2.181573	1.290333	1832.842000
19.217731	2.183600	1.288502	1833.342000
19.198897	2.185911	1.286680	1833.843000
19.180546	2.188172	1.285054	1834.342000
19.159091	2.189524	1.283384	1834.842000
19.140955	2.191135	1.281855	1835.342000
19.117324	2.192662	1.280463	1835.842000
19.097519	2.193586	1.278937	1836.342000
19.079754	2.194157	1.277430	1836.843000
19.057439	2.194980	1.275748	1837.342000
19.037616	2.195708	1.274038	1837.842000
19.019149	2.195900	1.272546	1838.342000
18.998703	2.195573	1.270969	1838.842000
18.980431	2.195232	1.269391	1839.342000
18.961048	2.194960	1.267739	1839.842000
18.938288	2.194123	1.266148	1840.342000
18.923199	2.192874	1.264531	1840.842000
18.904758	2.191903	1.263006	1841.342000
18.885785	2.190723	1.261518	1841.842000
18.865619	2.189287	1.259969	1842.342000
18.843939	2.187685	1.258319	1842.842000
18.827737	2.185752	1.256855	1843.342000
18.806980	2.183742	1.255460	1843.842000
18.787134	2.180728	1.254136	1844.342000
18.769868	2.178219	1.252829	1844.842000
18.750721	2.176244	1.251553	1845.342000
18.733336	2.174353	1.250111	1845.842000
18.714610	2.171553	1.248654	1846.342000
18.696915	2.169309	1.247369	1846.842000
18.676004	2.167439	1.246129	1847.342000
18.657336	2.165039	1.244921	1847.843000
18.636890	2.162791	1.243523	1848.342000
18.616958	2.160284	1.242065	1848.842000
18.597388	2.158206	1.240697	1849.342000
18.581179	2.156259	1.239394	1849.842000
18.563294	2.156135	1.238219	1850.342000
18.543263	2.154665	1.237064	1850.842000
18.524892	2.152443	1.235832	1851.343000
18.503208	2.149443	1.234795	1851.842000
18.483716	2.145840	1.233651	1852.342000
18.467432	2.143029	1.232355	1852.842000
18.445303	2.140763	1.231154	1853.342000
18.425855	2.138153	1.229801	1853.842000
18.408118	2.135495	1.228567	1854.342000
18.385975	2.132942	1.227217	1854.842000
18.368848	2.129795	1.225862	1855.342000
18.348476	2.126543	1.224782	1855.842000
18.328506	2.123811	1.223731	1856.342000
18.314604	2.121453	1.222606	1856.843000
18.298315	2.118446	1.221217	1857.342000
18.277462	2.115498	1.219948	1857.843000
18.257725	2.112935	1.218854	1858.342000
18.240601	2.109770	1.217718	1858.842000
18.221412	2.106250	1.216453	1859.342000
18.200775	2.103383	1.215253	1859.842000
18.182474	2.100877	1.214139	1860.342000
18.162373	2.098777	1.213094	1860.842000
18.141217	2.096720	1.212013	1861.343000
18.123353	2.094844	1.210966	1861.842000
18.109793	2.092982	1.209934	1862.342000
18.094489	2.090873	1.208918	1862.842000
18.071165	2.088475	1.207818	1863.342000
18.049334	2.086146	1.206871	1863.843000
18.034591	2.084764	1.205879	1864.342000
18.017099	2.083573	1.204832	1864.842000
17.999714	2.081605	1.203959	1865.342000
17.978067	2.079826	1.202928	1865.842000
17.956174	2.078549	1.201756	1866.342000
17.938873	2.077549	1.200498	1866.842000
17.921414	2.076496	1.199129	1867.342000
17.905252	2.075297	1.197793	1867.842000
17.887361	2.074081	1.196610	1868.342000
17.860942	2.073063	1.195667	1868.842000
17.841527	2.072488	1.194671	1869.342000
17.822079	2.071930	1.193711	1869.842000
17.804004	2.071259	1.192521	1870.342000
17.786610	2.070987	1.191210	1870.842000
17.768439	2.070964	1.189878	1871.342000
17.751053	2.070680	1.188622	1871.842000
17.734738	2.070373	1.187408	1872.342000
17.713303	2.070188	1.186299	1872.842000
17.688934	2.070092	1.185378	1873.342000
17.669391	2.070074	1.184475	1873.842000
17.652453	2.069849	1.183530	1874.342000
17.632804	2.069461	1.182419	1874.842000
17.614822	2.069282	1.181177	1875.342000
17.591638	2.069054	1.180012	1875.842000
17.569965	2.069372	1.178882	1876.342000
17.551826	2.069067	1.177672	1876.843000
17.533959	2.069310	1.176443	1877.342000
17.516197	2.070076	1.175187	1877.842000
17.495245	2.070286	1.173846	1878.342000
17.473279	2.070623	1.172465	1878.843000
17.454251	2.071334	1.170913	1879.343000
17.434891	2.071932	1.169532	1879.842000
17.420995	2.072202	1.168173	1880.342000
17.400197	2.072488	1.166989	1880.842000
17.380338	2.072379	1.165907	1881.342000
17.360294	2.072631	1.164665	1881.842000
17.342838	2.072953	1.163516	1882.342000
17.324695	2.073017	1.162347	1882.842000
17.305862	2.073047	1.161018	1883.342000
17.285227	2.073040	1.159627	1883.842000
17.268644	2.072780	1.158308	1884.342000
17.254187	2.072673	1.156931	1884.842000
17.237611	2.073076	1.155586	1885.342000
17.214035	2.073419	1.154320	1885.842000
17.192389	2.073370	1.152902	1886.342000
17.175598	2.073352	1.151444	1886.842000
17.162402	2.072796	1.150426	1887.342000
17.142465	2.072077	1.149384	1887.842000
17.116176	2.071229	1.148112	1888.342000
17.099255	2.070461	1.146701	1888.842000
17.085576	2.069035	1.145128	1889.342000
17.063740	2.067475	1.143556	1889.842000
17.043436	2.066442	1.142038	1890.342000
17.025055	2.065569	1.140464	1890.842000
17.006918	2.064298	1.138929	1891.342000
16.994168	2.063221	1.137376	1891.842000
16.973480	2.061911	1.136097	1892.342000
16.948604	2.060398	1.134900	1892.842000
16.935808	2.058460	1.133522	1893.342000
16.923008	2.056770	1.131999	1893.842000
16.902937	2.054781	1.130390	1894.342000
16.884660	2.052540	1.129001	1894.842000
16.860192	2.050279	1.127551	1895.342000
16.842133	2.048056	1.126052	1895.842000
16.822217	2.045247	1.124625	1896.342000
16.800433	2.042275	1.123505	1896.842000
16.782104	2.039341	1.122413	1897.342000
16.770868	2.036034	1.121097	1897.842000
16.751682	2.032497	1.119613	1898.342000
16.738331	2.028888	1.118109	1898.842000
16.719570	2.025291	1.116817	1899.342000
16.710569	2.021758	1.115506	1899.842000
16.690121	2.017982	1.114160	1900.342000
16.666772	2.013509	1.112690	1900.842000
16.652188	2.008777	1.111300	1901.342000
16.635788	2.004051	1.109925	1901.842000
16.610785	1.998983	1.108510	1902.342000
16.592997	1.993653	1.107043	1902.842000
16.570420	1.987877	1.105579	1903.342000
16.557705	1.982304	1.104423	1903.842000
16.531817	1.976645	1.103134	1904.342000
16.517297	1.970823	1.101694	1904.842000
16.497928	1.964678	1.100182	1905.342000
16.474771	1.957777	1.098733	1905.842000
16.456561	1.950355	1.097255	1906.342000
16.436844	1.942922	1.095787	1906.842000
16.415515	1.934555	1.094479	1907.342000
16.401572	1.925565	1.093069	1907.842000
16.379230	1.916944	1.091582	1908.342000
16.353705	1.908469	1.090077	1908.842000
16.338684	1.899406	1.088297	1909.342000
16.323004	1.889727	1.086739	1909.843000
16.311309	1.879299	1.085244	1910.342000
16.290897	1.868807	1.083798	1910.842000
16.265167	1.858365	1.082330	1911.342000
16.251611	1.847315	1.080689	1911.842000
16.234225	1.836187	1.079086	1912.342000
16.217444	1.824903	1.077651	1912.842000
16.189596	1.812825	1.076330	1913.343000
16.178204	1.799952	1.074948	1913.842000
16.157825	1.786747	1.073533	1914.343000
16.139461	1.773791	1.072174	1914.842000
16.119208	1.760455	1.070991	1915.342000
16.101376	1.746860	1.069900	1915.842000
16.083902	1.732526	1.068719	1916.342000
16.067206	1.717923	1.067470	1916.842000
16.045199	1.703096	1.066116	1917.342000
16.025567	1.687418	1.064793	1917.842000
16.007017	1.670711	1.063378	1918.342000
15.985992	1.653194	1.061922	1918.842000
15.969513	1.634814	1.060590	1919.342000
15.951962	1.616276	1.059156	1919.842000
15.932297	1.597957	1.057747	1920.342000
15.917584	1.578857	1.056384	1920.842000
15.898062	1.559469	1.054893	1921.343000
15.874173	1.540166	1.053438	1921.842000
15.858958	1.519821	1.052150	1922.342000
15.833952	1.498555	1.050880	1922.842000
15.816285	1.476249	1.049614	1923.342000
15.799338	1.453441	1.048359	1923.842000
15.781771	1.429793	1.047187	1924.342000
15.760409	1.405340	1.046046	1924.842000
15.740945	1.380467	1.044822	1925.342000
15.720810	1.355101	1.043492	1925.842000
15.701999	1.329030	1.042296	1926.342000
15.681982	1.302463	1.041228	1926.842000
15.664380	1.274821	1.040202	1927.342000
15.645326	1.246460	1.039138	1927.842000
15.627242	1.217347	1.037962	1928.342000
15.606116	1.188026	1.036871	1928.842000
15.590263	1.158181	1.035771	1929.342000
15.568381	1.127341	1.034730	1929.843000
15.554415	1.096193	1.033596	1930.342000
15.536926	1.064534	1.032618	1930.842000
15.514536	1.032537	1.031714	1931.342000
15.496722	1.000037	1.030857	1931.842000
15.480055	0.967315	1.030088	1932.342000
15.466122	0.934548	1.029544	1932.842000
15.446294	0.901793	1.028870	1933.342000
15.424314	0.869308	1.027980	1933.842000
15.402777	0.836873	1.027075	1934.342000
15.379483	0.804104	1.026259	1934.842000
15.367260	0.770988	1.025629	1935.342000
15.351953	0.737634	1.025171	1935.842000
15.333553	0.704688	1.024765	1936.342000
15.315218	0.672537	1.024461	1936.842000
15.296513	0.641023	1.024265	1937.342000
15.271130	0.610401	1.023944	1937.842000
15.257271	0.580638	1.023618	1938.342000
15.238546	0.551447	1.023430	1938.842000
15.218590	0.523145	1.023393	1939.342000
15.194139	0.495991	1.023301	1939.842000
15.180871	0.470307	1.023430	1940.342000
15.161528	0.445838	1.023634	1940.843000
15.140648	0.422528	1.023857	1941.342000
15.119829	0.400174	1.024239	1941.842000
15.105497	0.378968	1.024637	1942.342000
15.086565	0.358385	1.024909	1942.842000
15.066345	0.339110	1.025026	1943.342000
15.043860	0.321019	1.025035	1943.842000
15.028360	0.303858	1.025075	1944.343000
15.010460	0.287910	1.025170	1944.842000
14.991994	0.272910	1.025352	1945.343000
14.969659	0.258974	1.025471	1945.843000
14.950629	0.245817	1.025553	1946.342000
14.930444	0.233102	1.025486	1946.842000
14.906884	0.221166	1.025414	1947.342000
14.890264	0.209902	1.025365	1947.842000
14.865971	0.199851	1.025421	1948.342000
14.849393	0.190594	1.025484	1948.842000
14.832711	0.182117	1.025476	1949.342000
14.813528	0.175118	1.025390	1949.842000
14.788855	0.169149	1.025317	1950.342000
14.773691	0.164588	1.025277	1950.842000
14.760168	0.161273	1.025258	1951.342000
14.741172	0.159063	1.025282	1951.842000
14.720957	0.158228	1.025260	1952.342000
14.700675	0.158466	1.025160	1952.842000
14.682345	0.160340	1.024975	1953.343000
14.658511	0.163834	1.024876	1953.842000
14.644250	0.169080	1.024969	1954.342000
14.625779	0.176112	1.025115	1954.842000
14.602207	0.184722	1.025181	1955.342000
14.581880	0.195291	1.025285	1955.842000
14.560686	0.207370	1.025226	1956.342000
14.538909	0.221248	1.024939	1956.843000
14.518421	0.236151	1.024609	1957.342000
14.502483	0.252540	1.024200	1957.843000
14.483342	0.270353	1.023820	1958.342000
14.471841	0.289196	1.023315	1958.842000
14.453287	0.308167	1.022719	1959.342000
14.435025	0.327180	1.021953	1959.842000
14.416831	0.346259	1.020959	1960.342000
14.396741	0.365539	1.020027	1960.842000
14.378940	0.384811	1.018980	1961.342000
14.359095	0.403902	1.017970	1961.842000
14.337085	0.423199	1.016858	1962.342000
14.317876	0.442877	1.015582	1962.842000
14.295662	0.463311	1.014175	1963.342000
14.277276	0.484228	1.012645	1963.842000
14.253957	0.505468	1.010949	1964.342000
14.234869	0.527461	1.009111	1964.842000
14.218444	0.549691	1.007188	1965.342000
14.195640	0.572261	1.005212	1965.842000
14.176488	0.595059	1.003274	1966.342000
14.159979	0.618246	1.001226	1966.842000
14.139307	0.641243	0.999123	1967.342000
14.121563	0.663964	0.996975	1967.842000
14.100849	0.686585	0.994895	1968.342000
14.082087	0.708963	0.992902	1968.843000
14.064691	0.730833	0.990960	1969.342000
14.046973	0.752414	0.988724	1969.842000
14.025903	0.773736	0.986508	1970.342000
14.006558	0.794714	0.984299	1970.843000
13.989301	0.814847	0.982191	1971.342000
13.972877	0.834577	0.980115	1971.842000
13.952734	0.853984	0.978103	1972.342000
13.932069	0.873099	0.976143	1972.842000
13.912644	0.891959	0.974212	1973.342000
13.896549	0.910471	0.972065	1973.842000
13.876516	0.928389	0.970115	1974.342000
13.856289	0.946028	0.968182	1974.842000
13.835418	0.963620	0.966167	1975.342000
13.820185	0.980915	0.964161	1975.842000
13.802354	0.997990	0.962274	1976.342000
13.782778	1.015252	0.960529	1976.842000
13.765881	1.031850	0.958750	1977.342000
13.745395	1.047870	0.956755	1977.842000
13.727525	1.064124	0.954765	1978.342000
13.707838	1.080814	0.952717	1978.842000
13.687669	1.097043	0.950702	1979.342000
13.669496	1.113123	0.948828	1979.842000
13.649641	1.129232	0.946785	1980.342000
13.631047	1.145197	0.944804	1980.842000
13.613210	1.161061	0.942748	1981.342000
13.595477	1.176987	0.940681	1981.842000
13.576557	1.192646	0.938716	1982.342000
13.557572	1.208154	0.936949	1982.842000
13.539206	1.223086	0.935014	1983.342000
13.519275	1.237894	0.933268	1983.842000
13.499658	1.252483	0.931538	1984.342000
13.480584	1.266902	0.929811	1984.842000
13.460511	1.280458	0.927794	1985.342000
13.441845	1.293600	0.925701	1985.842000
13.423853	1.306665	0.923803	1986.342000
13.407403	1.319817	0.922047	1986.842000
13.388569	1.332962	0.920065	1987.342000
13.369516	1.345649	0.918041	1987.842000
13.350807	1.357391	0.916166	1988.342000
13.332308	1.368442	0.914483	1988.842000
13.313459	1.379220	0.912815	1989.342000
13.294460	1.389930	0.911235	1989.843000
13.274641	1.400217	0.909572	1990.342000
13.253409	1.410022	0.907840	1990.842000
13.235859	1.419382	0.906151	1991.342000
13.217358	1.428565	0.904583	1991.842000
13.198572	1.437315	0.903208	1992.342000
13.181034	1.445345	0.901656	1992.842000
13.164272	1.452957	0.900047	1993.342000
13.146532	1.460258	0.898429	1993.842000
13.128217	1.468215	0.896807	1994.342000
13.105217	1.475857	0.895126	1994.842000
13.086014	1.482298	0.893469	1995.342000
13.066845	1.487945	0.891979	1995.842000
13.050560	1.493311	0.890558	1996.342000
13.030612	1.498488	0.889280	1996.842000
13.009009	1.503244	0.887951	1997.342000
12.987894	1.508530	0.886560	1997.842000
12.968017	1.514051	0.885181	1998.342000
12.949239	1.518654	0.883769	1998.842000
12.933753	1.522272	0.882145	1999.342000
12.912630	1.525345	0.880369	1999.842000
12.895716	1.528280	0.878789	2000.342000
12.873592	1.531106	0.877143	2000.842000
12.858015	1.533317	0.875591	2001.342000
12.840440	1.535301	0.874136	2001.842000
12.819343	1.536951	0.872686	2002.342000
12.799406	1.538512	0.871144	2002.842000
12.780038	1.540063	0.869667	2003.343000
12.759752	1.541670	0.868089	2003.842000
12.743163	1.543055	0.866613	2004.342000
12.725631	1.543816	0.865105	2004.842000
12.704788	1.544360	0.863743	2005.342000
12.685971	1.544831	0.862463	2005.842000
12.666844	1.545056	0.861080	2006.342000
12.646240	1.545243	0.859646	2006.842000
12.627811	1.544755	0.858219	2007.342000
12.609138	1.543659	0.856865	2007.842000
12.590742	1.542572	0.855613	2008.342000
12.570839	1.541505	0.854319	2008.842000
12.553131	1.540028	0.852859	2009.342000
12.538084	1.538140	0.851517	2009.842000
12.521802	1.535854	0.850093	2010.342000
12.499674	1.533374	0.848708	2010.842000
12.475149	1.530689	0.847440	2011.342000
12.456114	1.527649	0.846164	2011.842000
12.438610	1.524084	0.844830	2012.342000
12.422556	1.520034	0.843517	2012.842000
12.402201	1.515781	0.842121	2013.342000
12.383464	1.511584	0.840809	2013.842000
12.363295	1.507214	0.839496	2014.342000
12.346752	1.501228	0.838258	2014.842000
12.327464	1.494529	0.836824	2015.342000
12.308698	1.488196	0.835379	2015.842000
12.290399	1.482121	0.833931	2016.343000
12.276300	1.473902	0.832493	2016.842000
12.252765	1.465742	0.831015	2017.342000
12.238252	1.458149	0.829520	2017.842000
12.220718	1.450922	0.828092	2018.342000
12.205594	1.443455	0.826913	2018.843000
12.179820	1.435581	0.825776	2019.342000
12.160630	1.427091	0.824447	2019.842000
12.139492	1.418230	0.823053	2020.342000
12.123393	1.409067	0.821773	2020.842000
12.104826	1.399015	0.820484	2021.342000
12.088562	1.387869	0.819039	2021.842000
12.069656	1.376433	0.817714	2022.342000
12.054202	1.364985	0.816549	2022.842000
12.033437	1.352997	0.815214	2023.343000
12.017632	1.340391	0.813799	2023.842000
11.995252	1.327509	0.812445	2024.343000
11.978958	1.313553	0.811079	2024.842000
11.961799	1.298801	0.809753	2025.342000
11.945335	1.283605	0.808523	2025.842000
11.928138	1.268241	0.807304	2026.342000
11.906410	1.252660	0.806059	2026.842000
11.892999	1.235855	0.804761	2027.342000
11.865274	1.218664	0.803568	2027.842000
11.845435	1.201309	0.802316	2028.342000
11.826225	1.182945	0.800864	2028.843000
11.807961	1.163482	0.799395	2029.342000
11.791760	1.142755	0.798200	2029.842000
11.777592	1.121521	0.796977	2030.342000
11.759476	1.099671	0.795924	2030.843000
11.735450	1.077542	0.795047	2031.342000
11.715948	1.054605	0.794101	2031.843000
11.698541	1.030698	0.793111	2032.342000
11.677887	1.005818	0.792090	2032.842000
11.662944	0.979816	0.791015	2033.342000
11.646199	0.953684	0.789888	2033.842000
11.629951	0.927203	0.788785	2034.343000
11.607157	0.899891	0.787610	2034.842000
11.597222	0.872200	0.786514	2035.342000
11.573598	0.843839	0.785503	2035.842000
11.554077	0.814981	0.784487	2036.342000
11.536213	0.785032	0.783594	2036.842000
11.519385	0.754690	0.782535	2037.342000
11.496136	0.723846	0.781502	2037.842000
11.480707	0.692568	0.780500	2038.342000
11.463280	0.660752	0.779577	2038.842000
11.440710	0.628850	0.778784	2039.342000
11.426851	0.596805	0.778133	2039.842000
11.404694	0.564848	0.777508	2040.342000
11.385126	0.532750	0.776907	2040.843000
11.366552	0.500979	0.776596	2041.342000
11.348267	0.470244	0.776175	2041.842000
11.331555	0.440280	0.775632	2042.342000
11.312915	0.411403	0.775259	2042.843000
11.295013	0.383916	0.774957	2043.342000
11.277743	0.358123	0.774816	2043.842000
11.258114	0.334247	0.774693	2044.343000
11.238865	0.311943	0.774671	2044.842000
11.218856	0.290429	0.774679	2045.342000
11.197513	0.270688	0.774576	2045.842000
11.179058	0.252763	0.774406	2046.343000
11.162859	0.236583	0.774223	2046.842000
11.149762	0.222179	0.774204	2047.342000
11.134943	0.209387	0.774334	2047.842000
11.115738	0.198273	0.774407	2048.342000
11.083771	0.188814	0.774259	2048.842000
11.066483	0.181024	0.774095	2049.342000
11.051119	0.175141	0.774032	2049.842000
11.034060	0.171340	0.774104	2050.342000
11.017849	0.170191	0.774248	2050.842000
10.999079	0.171578	0.774387	2051.342000
10.980270	0.175357	0.774406	2051.842000
10.955768	0.181148	0.774440	2052.342000
10.933575	0.188947	0.774439	2052.842000
10.918076	0.199120	0.774331	2053.342000
10.895278	0.211349	0.774073	2053.843000
10.876486	0.225049	0.773655	2054.342000
10.859236	0.240322	0.773007	2054.842000
10.849222	0.256841	0.772464	2055.342000
10.833157	0.273459	0.771766	2055.842000
10.805576	0.290020	0.770889	2056.342000
10.791360	0.307068	0.769988	2056.842000
10.767192	0.323903	0.769002	2057.343000
10.745172	0.340640	0.767680	2057.842000
10.726128	0.357995	0.766153	2058.343000
10.711138	0.376035	0.764476	2058.842000
10.696668	0.394864	0.762802	2059.342000
10.672848	0.413838	0.760964	2059.842000
10.652498	0.432594	0.759224	2060.342000
10.642095	0.451719	0.757416	2060.843000
10.621233	0.470866	0.755720	2061.342000
10.596379	0.489690	0.753979	2061.843000
10.580490	0.508552	0.752161	2062.342000
10.562289	0.527678	0.750320	2062.842000
10.541296	0.546900	0.748360	2063.342000
10.527228	0.566364	0.746281	2063.842000
10.511745	0.585684	0.744297	2064.342000
10.492814	0.604518	0.742252	2064.842000
10.466273	0.622874	0.740151	2065.342000
10.449087	0.640600	0.738332	2065.842000
10.434301	0.657950	0.736559	2066.343000
10.412066	0.675067	0.734591	2066.842000
10.394537	0.691978	0.732565	2067.343000
10.379227	0.708612	0.730537	2067.842000
10.359714	0.725184	0.728544	2068.342000
10.336634	0.741500	0.726685	2068.842000
10.317225	0.758057	0.724946	2069.342000
10.297756	0.774752	0.723049	2069.842000
10.281351	0.791328	0.721153	2070.342000
10.261731	0.807542	0.719347	2070.843000
10.238724	0.823690	0.717671	2071.342000
10.216055	0.839259	0.715844	2071.843000
10.200861	0.855218	0.714026	2072.342000
10.180042	0.871301	0.712151	2072.842000
10.161180	0.886890	0.710280	2073.342000
10.147970	0.901846	0.708365	2073.842000
10.124516	0.916508	0.706417	2074.342000
10.106105	0.930680	0.704592	2074.842000
10.089252	0.944202	0.702813	2075.342000
10.068455	0.956607	0.701037	2075.842000
10.046222	0.968780	0.699295	2076.342000
10.027603	0.980691	0.697489	2076.842000
10.004855	0.991975	0.695598	2077.342000
9.989301	1.003122	0.693665	2077.842000
9.966574	1.013524	0.691804	2078.342000
9.955799	1.023067	0.690209	2078.842000
9.937493	1.031698	0.688604	2079.342000
9.917130	1.039370	0.687075	2079.843000
9.896355	1.046082	0.685508	2080.342000
9.873187	1.051621	0.683894	2080.842000
9.855627	1.056205	0.682164	2081.342000
9.832791	1.060077	0.680756	2081.843000
9.813661	1.063686	0.679349	2082.342000
9.797540	1.066922	0.677982	2082.842000
9.776803	1.069342	0.676562	2083.342000
9.757346	1.070838	0.675017	2083.843000
9.739366	1.071297	0.673238	2084.343000
9.717525	1.070860	0.671639	2084.842000
9.697855	1.069944	0.670062	2085.342000
9.678958	1.068060	0.668508	2085.842000
9.658963	1.065128	0.666863	2086.342000
9.641428	1.061155	0.665392	2086.842000
9.619406	1.056139	0.664047	2087.342000
9.595160	1.050325	0.662507	2087.842000
9.577309	1.043666	0.661038	2088.342000
9.556034	1.035899	0.659514	2088.842000
9.536121	1.027164	0.657998	2089.342000
9.520673	1.017570	0.656581	2089.842000
9.501182	1.007045	0.655184	2090.342000
9.485431	0.995584	0.653734	2090.842000
9.462997	0.982743	0.652552	2091.342000
9.438116	0.969083	0.651347	2091.842000
9.419763	0.954178	0.650038	2092.342000
9.398517	0.938032	0.648904	2092.842000
9.378238	0.920922	0.647803	2093.342000
9.357714	0.902607	0.646446	2093.842000
9.338593	0.882550	0.644780	2094.342000
9.319076	0.861190	0.643261	2094.843000
9.301071	0.838740	0.642033	2095.343000
9.281772	0.815442	0.640830	2095.842000
9.259493	0.791108	0.639533	2096.343000
9.241154	0.765265	0.638288	2096.842000
9.221967	0.738353	0.637031	2097.342000
9.201566	0.710312	0.635833	2097.842000
9.181916	0.681194	0.634711	2098.342000
9.162654	0.650796	0.633543	2098.842000
9.144350	0.619702	0.632391	2099.342000
9.125503	0.588069	0.631334	2099.842000
9.105318	0.556339	0.630298	2100.342000
9.086304	0.524367	0.629457	2100.842000
9.067395	0.492524	0.628862	2101.342000
9.049353	0.461079	0.628150	2101.842000
9.030356	0.430069	0.627537	2102.342000
9.010180	0.399756	0.626912	2102.843000
8.989726	0.371020	0.626336	2103.342000
8.969607	0.344124	0.626057	2103.842000
8.951740	0.318598	0.625751	2104.342000
8.933399	0.294904	0.625489	2104.843000
8.913328	0.273550	0.625208	2105.342000
8.895340	0.254085	0.624963	2105.842000
8.875977	0.237130	0.624802	2106.342000
8.855670	0.223095	0.624739	2106.842000
8.835601	0.211708	0.624632	2107.342000
8.814628	0.202904	0.624637	2107.842000
8.795956	0.196793	0.624591	2108.342000
8.774735	0.193945	0.624324	2108.842000
8.755904	0.194202	0.624046	2109.343000
8.736638	0.197540	0.623873	2109.843000
8.717642	0.203924	0.623707	2110.343000
8.697767	0.212832	0.623290	2110.842000
8.677405	0.223513	0.622715	2111.342000
8.657615	0.235752	0.622011	2111.843000
8.638911	0.249167	0.621211	2112.342000
8.620286	0.263919	0.620192	2112.842000
8.601882	0.279484	0.619052	2113.342000
8.583375	0.295496	0.617620	2113.842000
8.564110	0.311735	0.616050	2114.342000
8.543478	0.328688	0.614431	2114.842000
8.527616	0.346214	0.612929	2115.343000
8.507114	0.363803	0.611457	2115.842000
8.487503	0.381725	0.609687	2116.342000
8.467200	0.399493	0.607849	2116.842000
8.447375	0.417232	0.605951	2117.342000
8.428243	0.434780	0.603934	2117.842000
8.408681	0.452373	0.601962	2118.342000
8.389395	0.469635	0.599983	2118.842000
8.368751	0.486601	0.597970	2119.343000
8.352425	0.503703	0.595982	2119.842000
8.332056	0.520809	0.593944	2120.343000
8.311007	0.537709	0.591874	2120.842000
8.290613	0.554510	0.590068	2121.342000
8.272217	0.571384	0.588257	2121.842000
8.253823	0.587902	0.586380	2122.342000
8.234072	0.604100	0.584384	2122.842000
8.213933	0.619947	0.582414	2123.342000
8.192412	0.635068	0.580501	2123.842000
8.172843	0.649302	0.578558	2124.342000
8.153462	0.662935	0.576841	2124.842000
8.134341	0.676060	0.575006	2125.342000
8.115452	0.688521	0.573391	2125.842000
8.097049	0.700316	0.571764	2126.342000
8.077344	0.711916	0.569975	2126.842000
8.058325	0.722683	0.568189	2127.342000
8.040554	0.732092	0.566349	2127.842000
8.020495	0.739965	0.564476	2128.342000
7.998211	0.746824	0.562693	2128.842000
7.979124	0.752351	0.561133	2129.342000
7.959431	0.756347	0.559628	2129.842000
7.941926	0.758845	0.557945	2130.343000
7.925305	0.760477	0.556325	2130.842000
7.904993	0.761052	0.554734	2131.342000
7.884583	0.759973	0.553122	2131.842000
7.868660	0.757181	0.551482	2132.342000
7.851270	0.752705	0.549828	2132.842000
7.832940	0.746746	0.548224	2133.342000
7.810203	0.738851	0.546738	2133.843000
7.790062	0.729343	0.545418	2134.342000
7.770563	0.719089	0.544182	2134.843000
7.750236	0.707459	0.542921	2135.342000
7.731162	0.693960	0.541733	2135.842000
7.713446	0.678581	0.540414	2136.342000
7.698528	0.661430	0.538996	2136.842000
7.679354	0.642971	0.537681	2137.342000
7.658812	0.622786	0.536414	2137.842000
7.640349	0.601299	0.535241	2138.342000
7.621143	0.578176	0.534106	2138.842000
7.601755	0.554058	0.533009	2139.342000
7.582786	0.528497	0.532015	2139.842000
7.563688	0.501731	0.531097	2140.343000
7.544704	0.474529	0.530136	2140.842000
7.526105	0.446760	0.529078	2141.342000
7.505762	0.418411	0.528167	2141.842000
7.486597	0.390884	0.527414	2142.342000
7.468651	0.363909	0.526678	2142.842000
7.449426	0.338048	0.526204	2143.342000
7.431350	0.313776	0.525691	2143.842000
7.410344	0.291846	0.525313	2144.342000
7.390316	0.272246	0.525101	2144.842000
7.370625	0.254932	0.524811	2145.342000
7.352932	0.240159	0.524542	2145.843000
7.334993	0.228648	0.524187	2146.342000
7.316728	0.220175	0.524119	2146.842000
7.297494	0.214834	0.523968	2147.342000
7.279075	0.213028	0.523630	2147.842000
7.263196	0.214771	0.523271	2148.343000
7.245949	0.219281	0.522756	2148.842000
7.228031	0.226008	0.522062	2149.342000
7.206958	0.234344	0.521228	2149.842000
7.188221	0.244352	0.520314	2150.343000
7.170264	0.255896	0.519378	2150.842000
7.148708	0.268609	0.518250	2151.342000
7.129800	0.282667	0.516880	2151.842000
7.107975	0.297361	0.515508	2152.342000
7.088313	0.312658	0.513972	2152.842000
7.070327	0.328360	0.512343	2153.342000
7.052500	0.344129	0.510591	2153.842000
7.032620	0.360363	0.508694	2154.342000
7.014493	0.376789	0.506636	2154.842000
6.995188	0.393027	0.504794	2155.342000
6.974943	0.409223	0.502981	2155.843000
6.955029	0.424949	0.501152	2156.342000
6.936349	0.440275	0.499293	2156.842000
6.917521	0.455593	0.497473	2157.342000
6.896346	0.470035	0.495661	2157.842000
6.881766	0.483440	0.493839	2158.342000
6.866146	0.496311	0.492056	2158.842000
6.845199	0.508846	0.490276	2159.342000
6.821703	0.520569	0.488530	2159.842000
6.801488	0.531140	0.486573	2160.342000
6.788011	0.540290	0.484630	2160.842000
6.767512	0.548376	0.483012	2161.342000
6.750086	0.555581	0.481394	2161.842000
6.731668	0.561672	0.479742	2162.342000
6.710709	0.566544	0.478243	2162.842000
6.692753	0.569707	0.476688	2163.342000
6.670869	0.570864	0.475031	2163.843000
6.655109	0.570446	0.473358	2164.342000
6.638740	0.568368	0.471871	2164.842000
6.619663	0.563910	0.470607	2165.342000
6.600617	0.557443	0.469339	2165.843000
6.582749	0.548817	0.468006	2166.342000
6.567085	0.538182	0.466551	2166.843000
6.548892	0.525935	0.465125	2167.342000
6.533407	0.511659	0.463850	2167.842000
6.510290	0.495892	0.462736	2168.342000
6.484355	0.478450	0.461845	2168.842000
6.467260	0.459274	0.460885	2169.342000
6.450340	0.438244	0.459842	2169.842000
6.434310	0.415743	0.458775	2170.343000
6.415413	0.392474	0.457813	2170.842000
6.391213	0.368930	0.457003	2171.342000
6.371951	0.345792	0.456128	2171.842000
6.352614	0.323784	0.455447	2172.342000
6.335346	0.303190	0.454888	2172.843000
6.321284	0.284163	0.454207	2173.342000
6.302521	0.267897	0.453598	2173.843000
6.283686	0.254527	0.453123	2174.342000
6.263748	0.244349	0.452601	2174.842000
6.242358	0.237525	0.452118	2175.342000
6.217371	0.233795	0.451551	2175.843000
6.197122	0.233233	0.450895	2176.342000
6.179834	0.235889	0.450219	2176.842000
6.165514	0.241045	0.449347	2177.342000
6.146332	0.248727	0.448253	2177.842000
6.121607	0.258193	0.447258	2178.342000
6.109457	0.269271	0.446080	2178.842000
6.092883	0.281823	0.444720	2179.342000
6.080832	0.295189	0.443488	2179.842000
6.057998	0.308682	0.442218	2180.342000
6.037680	0.322324	0.440713	2180.842000
6.014914	0.336130	0.438992	2181.342000
6.000850	0.350103	0.437239	2181.843000
5.975531	0.364047	0.435384	2182.342000
5.958949	0.377436	0.433619	2182.842000
5.941993	0.390298	0.431835	2183.342000
5.922490	0.402156	0.429981	2183.842000
5.899849	0.412955	0.428066	2184.342000
5.879443	0.423476	0.426438	2184.842000
5.860231	0.433389	0.424939	2185.342000
5.841400	0.441879	0.423266	2185.842000
5.822980	0.448792	0.421556	2186.342000
5.804401	0.453375	0.419727	2186.842000
5.787612	0.456161	0.417894	2187.343000
5.767672	0.457264	0.416354	2187.842000
5.750560	0.456519	0.414859	2188.343000
5.733784	0.453784	0.413297	2188.842000
5.712836	0.448411	0.411725	2189.342000
5.691920	0.440648	0.410412	2189.842000
5.673483	0.430684	0.409030	2190.342000
5.654449	0.418316	0.407788	2190.842000
5.638748	0.403835	0.406657	2191.343000
5.625608	0.388430	0.405701	2191.842000
5.607228	0.372331	0.404658	2192.342000
5.588540	0.355533	0.403768	2192.842000
5.568119	0.337865	0.403023	2193.342000
5.549612	0.320622	0.402429	2193.842000
5.529427	0.304289	0.401867	2194.342000
5.511408	0.289417	0.401387	2194.842000
5.496146	0.277054	0.400874	2195.342000
5.478149	0.267466	0.400219	2195.842000
5.456683	0.260132	0.399569	2196.342000
5.427906	0.255376	0.398896	2196.842000
5.404441	0.253518	0.398157	2197.343000
5.384122	0.254860	0.397130	2197.842000
5.366084	0.258980	0.395993	2198.342000
5.351034	0.265347	0.394823	2198.842000
5.335499	0.273775	0.393323	2199.342000
5.324299	0.283812	0.391906	2199.842000
5.303748	0.294625	0.390379	2200.343000
5.282675	0.305996	0.388884	2200.842000
5.263923	0.317948	0.387297	2201.343000
5.244818	0.330265	0.385692	2201.842000
5.223811	0.342466	0.384150	2202.342000
5.204857	0.353571	0.382498	2202.842000
5.181866	0.363774	0.380805	2203.342000
5.163766	0.373470	0.378916	2203.842000
5.148597	0.381654	0.377114	2204.342000
5.127502	0.387789	0.375737	2204.842000
5.110643	0.391788	0.374411	2205.342000
5.091844	0.393615	0.373009	2205.842000
5.068973	0.393628	0.371336	2206.342000
5.051880	0.391711	0.369642	2206.842000
5.032090	0.387333	0.368264	2207.343000
5.012466	0.380393	0.366981	2207.843000
4.994376	0.371162	0.365692	2208.342000
4.974821	0.360089	0.364326	2208.842000
4.953529	0.347502	0.362969	2209.343000
4.935284	0.334159	0.361870	2209.842000
4.920156	0.320538	0.360904	2210.342000
4.898310	0.306846	0.359907	2210.842000
4.878931	0.294446	0.359039	2211.342000
4.861606	0.284455	0.358278	2211.842000
4.841345	0.277188	0.357487	2212.342000
4.814848	0.272241	0.356644	2212.842000
4.794269	0.269989	0.355767	2213.342000
4.772888	0.270511	0.354827	2213.842000
4.756284	0.274150	0.353727	2214.342000
4.736981	0.280237	0.352406	2214.842000
4.716426	0.288356	0.350934	2215.342000
4.696198	0.298092	0.349429	2215.842000
4.677969	0.308186	0.347997	2216.342000
4.659427	0.318414	0.346441	2216.842000
4.639836	0.328398	0.344870	2217.342000
4.621162	0.337329	0.343215	2217.842000
4.600485	0.345205	0.341518	2218.343000
4.581718	0.351669	0.339859	2218.842000
4.563919	0.356107	0.338134	2219.342000
4.543223	0.358501	0.336498	2219.842000
4.523870	0.358493	0.334911	2220.342000
4.504370	0.356411	0.333404	2220.842000
4.485188	0.352017	0.331850	2221.342000
4.465030	0.345219	0.330397	2221.842000
4.446970	0.337009	0.329176	2222.342000
4.429492	0.328041	0.327985	2222.842000
4.410043	0.318658	0.326865	2223.343000
4.388607	0.309140	0.326023	2223.843000
4.369244	0.300388	0.325102	2224.342000
4.349493	0.293347	0.324115	2224.842000
4.332198	0.288718	0.323232	2225.342000
4.316231	0.286630	0.322347	2225.842000
4.295693	0.287238	0.321194	2226.342000
4.276679	0.289756	0.320001	2226.843000
4.257820	0.294098	0.318905	2227.342000
4.239783	0.300404	0.317615	2227.842000
4.221882	0.307939	0.316242	2228.342000
4.203640	0.315599	0.314838	2228.842000
4.185972	0.323538	0.313348	2229.342000
4.166658	0.330897	0.311858	2229.842000
4.148799	0.336917	0.310506	2230.342000
4.129193	0.341307	0.309201	2230.842000
4.110514	0.343644	0.307989	2231.342000
4.088644	0.343829	0.306751	2231.842000
4.069836	0.341917	0.305350	2232.342000
4.052789	0.337869	0.303991	2232.842000
4.035057	0.332352	0.302667	2233.343000
4.017241	0.326002	0.301327	2233.842000
3.999037	0.319532	0.300002	2234.342000
3.979648	0.313260	0.299070	2234.842000
3.960827	0.307925	0.298178	2235.342000
3.941728	0.303816	0.297193	2235.842000
3.922734	0.301336	0.296131	2236.342000
3.904989	0.301117	0.295167	2236.843000
3.885646	0.302874	0.294174	2237.342000
3.866879	0.305823	0.292872	2237.842000
3.847589	0.310627	0.291445	2238.343000
3.829313	0.317002	0.290169	2238.842000
3.811777	0.323222	0.288888	2239.342000
3.792235	0.328504	0.287446	2239.842000
3.773991	0.332722	0.285952	2240.342000
3.755046	0.335402	0.284420	2240.842000
3.738107	0.336530	0.282993	2241.342000
3.720563	0.335885	0.281598	2241.842000
3.701788	0.333912	0.280259	2242.342000
3.683350	0.330217	0.278846	2242.842000
3.664880	0.325966	0.277657	2243.342000
3.647546	0.321550	0.276581	2243.842000
3.628118	0.317909	0.275701	2244.342000
3.608126	0.315173	0.274734	2244.842000
3.588620	0.313783	0.273759	2245.342000
3.570096	0.313944	0.272670	2245.842000
3.552249	0.315514	0.271453	2246.342000
3.535547	0.318361	0.270180	2246.842000
3.514899	0.322632	0.268960	2247.342000
3.495402	0.327529	0.267706	2247.843000
3.476680	0.331764	0.266370	2248.342000
3.460513	0.335212	0.264902	2248.842000
3.440621	0.337409	0.263251	2249.342000
3.420694	0.338105	0.261617	2249.842000
3.400030	0.336806	0.260225	2250.342000
3.381788	0.334566	0.258973	2250.842000
3.364609	0.331615	0.257806	2251.342000
3.344803	0.328553	0.256765	2251.842000
3.326840	0.325950	0.255709	2252.342000
3.307516	0.324446	0.254600	2252.842000
3.288260	0.324724	0.253242	2253.342000
3.270875	0.326568	0.251995	2253.842000
3.253586	0.329419	0.250849	2254.342000
3.235601	0.332868	0.249615	2254.842000
3.217179	0.336250	0.248348	2255.342000
3.197703	0.339006	0.247026	2255.842000
3.179241	0.341227	0.245669	2256.342000
3.161106	0.342191	0.244430	2256.843000
3.143677	0.342043	0.243158	2257.342000
3.127127	0.340387	0.241979	2257.842000
3.105334	0.338404	0.240766	2258.342000
3.089328	0.336431	0.239598	2258.842000
3.068337	0.335153	0.238617	2259.342000
3.047890	0.335178	0.237494	2259.842000
3.028978	0.336450	0.236225	2260.342000
3.009636	0.339093	0.234912	2260.842000
2.989653	0.342137	0.233571	2261.342000
2.972092	0.345036	0.232284	2261.842000
2.954419	0.347194	0.230858	2262.342000
2.937402	0.348041	0.229373	2262.842000
2.919684	0.347671	0.227911	2263.342000
2.900016	0.346507	0.226568	2263.842000
2.879622	0.345669	0.225230	2264.342000
2.860717	0.345576	0.223834	2264.842000
2.843423	0.346066	0.222708	2265.342000
2.826669	0.346810	0.221517	2265.842000
2.807859	0.348207	0.220295	2266.342000
2.789815	0.350419	0.219084	2266.843000
2.771968	0.352678	0.217882	2267.342000
2.754449	0.354084	0.216607	2267.842000
2.736599	0.354484	0.215340	2268.342000
2.715061	0.353699	0.213987	2268.842000
2.694958	0.352879	0.212858	2269.342000
2.677586	0.352236	0.211725	2269.842000
2.661188	0.352587	0.210546	2270.342000
2.641833	0.353959	0.209225	2270.842000
2.623349	0.356144	0.207874	2271.342000
2.603549	0.358215	0.206443	2271.842000
2.585421	0.359671	0.205058	2272.343000
2.568394	0.360286	0.203716	2272.842000
2.551773	0.360281	0.202458	2273.342000
2.533014	0.359943	0.201308	2273.842000
2.514183	0.360055	0.200204	2274.343000
2.495718	0.360784	0.199140	2274.842000
2.477600	0.362256	0.197898	2275.342000
2.456994	0.364336	0.196657	2275.843000
2.436578	0.365928	0.195481	2276.342000
2.417319	0.366971	0.194175	2276.842000
2.398993	0.367466	0.192916	2277.342000
2.381406	0.367565	0.191728	2277.842000
2.362668	0.367956	0.190594	2278.342000
2.343189	0.368906	0.189387	2278.842000
2.324330	0.369887	0.188097	2279.343000
2.306358	0.371448	0.186551	2279.843000
2.287541	0.372940	0.185035	2280.342000
2.270712	0.374263	0.183703	2280.842000
2.252399	0.374991	0.182395	2281.342000
2.232663	0.375367	0.181120	2281.842000
2.213709	0.376276	0.179890	2282.343000
2.195382	0.377232	0.178795	2282.842000
2.179016	0.378536	0.177590	2283.342000
2.160846	0.379861	0.176294	2283.842000
2.141285	0.380939	0.174907	2284.342000
2.123269	0.381992	0.173641	2284.843000
2.103671	0.382932	0.172463	2285.342000
2.085773	0.383934	0.171164	2285.842000
2.066168	0.384543	0.169983	2286.342000
2.045089	0.385129	0.168852	2286.843000
2.028712	0.385799	0.167794	2287.342000
2.010422	0.386708	0.166578	2287.842000
1.998003	0.388014	0.165267	2288.342000
1.979844	0.389086	0.163977	2288.842000
1.963024	0.389812	0.162577	2289.342000
1.941110	0.390700	0.161259	2289.842000
1.920053	0.391849	0.160075	2290.342000
1.903174	0.392893	0.158972	2290.842000
1.888797	0.393979	0.157617	2291.342000
1.872012	0.395153	0.156263	2291.842000
1.853915	0.396083	0.154889	2292.342000
1.838774	0.396942	0.153637	2292.842000
1.816793	0.397978	0.152601	2293.342000
1.798335	0.398966	0.151625	2293.842000
1.785726	0.400188	0.150651	2294.342000
1.767770	0.401268	0.149543	2294.842000
1.747881	0.402182	0.148375	2295.342000
1.728732	0.403032	0.147203	2295.843000
1.711388	0.403987	0.145846	2296.342000
1.696091	0.405247	0.144551	2296.842000
1.676712	0.406539	0.143460	2297.342000
1.656447	0.407754	0.142322	2297.843000
1.639449	0.408688	0.141104	2298.342000
1.622435	0.409315	0.139925	2298.842000
1.605665	0.410034	0.138796	2299.342000
1.588698	0.410970	0.137646	2299.842000
1.571692	0.411922	0.136351	2300.342000
1.552515	0.412845	0.135081	2300.842000
1.533575	0.413673	0.133865	2301.342000
1.514642	0.414366	0.132682	2301.842000
1.496077	0.414857	0.131524	2302.343000
1.478370	0.415359	0.130272	2302.842000
1.460060	0.416319	0.128969	2303.342000
1.445082	0.417776	0.127601	2303.842000
1.429641	0.419075	0.126250	2304.343000
1.416129	0.420492	0.125001	2304.842000
1.393899	0.421559	0.123779	2305.343000
1.372741	0.421927	0.122698	2305.842000
1.354791	0.422185	0.121642	2306.342000
1.340656	0.423568	0.120482	2306.842000
1.323898	0.424788	0.119305	2307.342000
1.307045	0.425727	0.118149	2307.843000
1.289250	0.426927	0.116873	2308.342000
1.279793	0.428238	0.115468	2308.842000
1.259875	0.429181	0.114168	2309.342000
1.232965	0.430207	0.113095	2309.843000
1.222653	0.431250	0.112128	2310.343000
1.198821	0.432514	0.111072	2310.842000
1.174896	0.433626	0.109972	2311.343000
1.153831	0.434643	0.108712	2311.842000
1.134912	0.435608	0.107414	2312.342000
1.118121	0.436289	0.105947	2312.842000
1.103275	0.437138	0.104482	2313.342000
1.089099	0.438427	0.103071	2313.842000
1.075646	0.439727	0.101830	2314.343000
1.057937	0.440914	0.100632	2314.842000
1.034942	0.442286	0.099343	2315.342000
1.013229	0.443607	0.098135	2315.842000
0.997900	0.444543	0.096741	2316.342000
0.974115	0.445546	0.095436	2316.842000
0.958035	0.446463	0.094273	2317.342000
0.940611	0.447257	0.093150	2317.843000
0.918132	0.448017	0.092019	2318.342000
0.901708	0.449174	0.090844	2318.842000
0.888153	0.450124	0.089645	2319.342000
0.868131	0.450891	0.088439	2319.842000
0.845508	0.452041	0.087235	2320.342000
0.828799	0.453319	0.086016	2320.842000
0.812799	0.454532	0.084729	2321.342000
0.798618	0.455760	0.083446	2321.842000
0.783350	0.457002	0.082183	2322.342000
0.759894	0.458183	0.081091	2322.842000
0.738620	0.459319	0.079866	2323.342000
0.726499	0.460731	0.078719	2323.842000
0.707767	0.462062	0.077600	2324.342000
0.685132	0.462850	0.076328	2324.842000
0.669247	0.463938	0.075007	2325.343000
0.652267	0.465135	0.073655	2325.843000
0.632539	0.466231	0.072435	2326.342000
0.608041	0.467141	0.071382	2326.842000
0.590755	0.467716	0.070284	2327.342000
0.577382	0.468402	0.069186	2327.843000
0.548242	0.469168	0.068165	2328.342000
0.532445	0.470188	0.067066	2328.843000
0.509653	0.471431	0.065935	2329.342000
0.495094	0.472669	0.064635	2329.842000
0.480358	0.474066	0.063087	2330.342000
0.458318	0.475379	0.061797	2330.842000
0.443234	0.476313	0.060740	2331.342000
0.428938	0.477330	0.059539	2331.842000
0.410106	0.478512	0.058106	2332.342000
0.391603	0.479832	0.056829	2332.842000
0.373833	0.480915	0.055487	2333.343000
0.356046	0.481929	0.054227	2333.842000
0.337501	0.483119	0.053041	2334.342000
0.321355	0.484410	0.051848	2334.842000
0.302983	0.485582	0.050735	2335.342000
0.283600	0.486677	0.049746	2335.842000
0.264401	0.487835	0.048810	2336.342000
0.246066	0.488672	0.047811	2336.842000
0.230098	0.489465	0.046794	2337.342000
0.208245	0.490629	0.045589	2337.842000
0.185339	0.491969	0.044472	2338.342000
0.164658	0.493094	0.043322	2338.842000
0.143396	0.494270	0.041995	2339.342000
0.121578	0.495381	0.040559	2339.843000
0.102834	0.496269	0.039125	2340.342000
0.099676	0.497471	0.037824	2340.842000
0.099863	0.498688	0.036700	2341.342000
0.099950	0.499563	0.035649	2341.842000
0.100117	0.500750	0.034786	2342.342000
0.100839	0.501425	0.034109	2342.842000
0.102150	0.501869	0.033554	2343.342000
0.103017	0.502114	0.032931	2343.842000
0.102324	0.501645	0.032275	2344.342000
0.102338	0.500957	0.031809	2344.842000
0.101984	0.500322	0.031379	2345.342000
0.101974	0.499983	0.030923	2345.842000
0.101695	0.499991	0.030675	2346.342000
0.101722	0.500103	0.030520	2346.843000
0.101749	0.500529	0.030518	2347.342000
0.101708	0.500919	0.030539	2347.842000
0.101731	0.501477	0.030511	2348.342000
0.101511	0.501880	0.030449	2348.843000
0.101630	0.502313	0.030328	2349.342000
0.101667	0.502506	0.030272	2349.842000
0.101534	0.502383	0.030231	2350.342000
0.101359	0.502675	0.030261	2350.843000
0.101221	0.503248	0.030254	2351.342000
0.101123	0.503539	0.030332	2351.842000
0.101235	0.503509	0.030247	2352.342000
0.101182	0.503581	0.030121	2352.842000
0.100997	0.503556	0.029988	2353.343000
0.100944	0.503792	0.029844	2353.842000
0.100936	0.503961	0.029869	2354.342000
0.100806	0.504055	0.029867	2354.842000
0.100723	0.504362	0.029835	2355.342000
0.100573	0.504895	0.029874	2355.842000
0.100626	0.505202	0.029797	2356.343000
0.100528	0.505231	0.029770	2356.842000
0.100558	0.505183	0.029901	2357.342000
0.100418	0.505129	0.030002	2357.842000
0.100375	0.505051	0.030068	2358.342000
0.100495	0.504602	0.030105	2358.842000
0.100424	0.504631	0.030089	2359.342000
0.100501	0.504764	0.029994	2359.843000
0.100533	0.504609	0.029882	2360.342000
0.100360	0.504544	0.029954	2360.842000
0.100241	0.504080	0.030211	2361.342000
0.100083	0.503691	0.030369	2361.842000
0.100251	0.503407	0.030407	2362.342000
0.100183	0.503125	0.030455	2362.842000
0.100322	0.503283	0.030498	2363.343000
0.100356	0.503578	0.030563	2363.842000
0.100316	0.504087	0.030707	2364.343000
0.100251	0.504489	0.030770	2364.842000
0.100211	0.504834	0.030704	2365.342000
0.100485	0.505293	0.030605	2365.842000
0.100455	0.505126	0.030492	2366.343000
0.100467	0.504500	0.030247	2366.842000
0.100473	0.503766	0.030154	2367.342000
0.100470	0.502920	0.030178	2367.842000
0.100604	0.502464	0.030441	2368.342000
0.100331	0.502485	0.030813	2368.843000
0.100693	0.502639	0.031000	2369.342000
0.100473	0.503438	0.030913	2369.842000
0.100283	0.504059	0.030681	2370.342000
0.100346	0.504661	0.030532	2370.843000
0.100552	0.504987	0.030428	2371.342000
0.100336	0.505069	0.030342	2371.842000
0.100205	0.505130	0.030390	2372.342000
0.100231	0.505648	0.030454	2372.842000
0.100110	0.505891	0.030442	2373.342000
0.100757	0.506046	0.030543	2373.842000
0.100291	0.506234	0.030531	2374.342000
0.100558	0.506238	0.030441	2374.842000
0.100176	0.506250	0.030302	2375.343000
0.100081	0.506117	0.030253	2375.842000
0.100104	0.505846	0.030144	2376.342000
0.099940	0.505988	0.029868	2376.842000
0.099895	0.506722	0.029502	2377.342000
0.099801	0.506521	0.029414	2377.843000
0.099847	0.505821	0.029525	2378.342000
0.099675	0.505270	0.029622	2378.843000
0.099660	0.505044	0.029592	2379.342000
0.099575	0.505253	0.029488	2379.842000
0.099356	0.505587	0.029472	2380.342000
